Subject	Choice.RT	Mode	RewN	RSeq	Target.ACC	Target.RT	Task	TaskChoice	Trialnr	Transition
10		Practice			1	902	A2			
10		Practice			1	907	A2			
10		Practice			1	709	A2			
10		Practice			1	614	A2			
10		Practice			1	763	A2			
10		Practice			1	539	A2			
10		Practice			1	627	A2			
10		Practice			1	602	A2			
10		Practice			1	528	A2			
10		Practice			1	498	A2			
10		Practice			1	573	A2			
10		Practice			1	615	A2			
10		Practice			1	582	A2			
10		Practice			1	526	A2			
10		Practice			1	512	A2			
10		Practice			1	625	A2			
10		Practice			1	749	A1			
10		Practice			1	750	A1			
10		Practice			1	525	A1			
10		Practice			0	1053	A1			
10		Practice			1	1357	A1			
10		Practice			1	522	A1			
10		Practice			1	1051	A1			
10		Practice			1	990	A1			
10		Practice			1	596	A1			
10		Practice			1	634	A1			
10		Practice			1	631	A1			
10		Practice			1	807	A1			
10		Practice			1	646	A1			
10		Practice			1	497	A1			
10		Practice			1	789	A1			
10		Practice			1	629	A1			
10	1307	Practice			1	854	A1	Zahlen		NaN
10	1001	Practice			1	745	A2	Buchstaben		s
10	779	Practice			1	851	A2	Buchstaben		r
10	648	Practice			1	757	A1	Zahlen		s
10	511	Practice			1	666	A1	Zahlen		r
10	548	Practice			1	742	A2	Buchstaben		s
10	701	Practice			1	632	A2	Buchstaben		r
10	440	Practice			1	734	A1	Zahlen		s
10	408	Practice			1	791	A1	Zahlen		r
10	391	Practice			1	726	A1	Zahlen		r
10	336	Practice			1	866	A2	Buchstaben		s
10	462	Practice			1	715	A2	Buchstaben		r
10	356	Practice			1	669	A1	Zahlen		s
10	697	Practice			1	645	A1	Zahlen		r
10	376	Practice			1	656	A2	Buchstaben		s
10	301	Practice			1	744	A2	Buchstaben		r
10	500	Baseline			1	616	A2	Buchstaben	1	NaN
10	308	Baseline			1	655	A2	Buchstaben	2	r
10	378	Baseline			1	714	A2	Buchstaben	3	r
10	327	Baseline			1	769	A1	Zahlen	4	s
10	466	Baseline			1	655	A2	Buchstaben	5	s
10	329	Baseline			1	899	A1	Zahlen	6	s
10	400	Baseline			1	711	A1	Zahlen	7	r
10	346	Baseline			1	707	A2	Buchstaben	8	s
10	358	Baseline			1	855	A1	Zahlen	9	s
10	355	Baseline			1	789	A1	Zahlen	10	r
10	405	Baseline			1	668	A2	Buchstaben	11	s
10	303	Baseline			1	666	A2	Buchstaben	12	r
10	359	Baseline			1	800	A1	Zahlen	13	s
10	440	Baseline			1	669	A1	Zahlen	14	r
10	368	Baseline			1	665	A2	Buchstaben	15	s
10	605	Baseline			1	772	A2	Buchstaben	16	r
10	316	Baseline			1	647	A2	Buchstaben	17	r
10	292	Baseline			1	663	A1	Zahlen	18	s
10	331	Baseline			1	669	A1	Zahlen	19	r
10	330	Baseline			1	693	A2	Buchstaben	20	s
10	322	Baseline			1	660	A1	Zahlen	21	s
10	281	Baseline			1	765	A1	Zahlen	22	r
10	358	Baseline			1	631	A2	Buchstaben	23	s
10	382	Baseline			1	654	A2	Buchstaben	24	r
10	248	Baseline			1	670	A1	Zahlen	25	s
10	296	Baseline			1	715	A1	Zahlen	26	r
10	318	Baseline			1	657	A1	Zahlen	27	r
10	340	Baseline			1	637	A2	Buchstaben	28	s
10	365	Baseline			1	742	A1	Zahlen	29	s
10	486	Baseline			1	634	A2	Buchstaben	30	s
10	405	Baseline			1	660	A2	Buchstaben	31	r
10	673	Baseline			1	701	A1	Zahlen	32	s
10	407	Baseline			1	629	A1	Zahlen	33	r
10	308	Baseline			1	894	A2	Buchstaben	34	s
10	256	Baseline			1	613	A2	Buchstaben	35	r
10	267	Baseline			1	584	A2	Buchstaben	36	r
10	294	Baseline			1	794	A1	Zahlen	37	s
10	307	Baseline			1	734	A1	Zahlen	38	r
10	265	Baseline			1	654	A1	Zahlen	39	r
10	345	Baseline			1	666	A2	Buchstaben	40	s
10	272	Baseline			1	620	A2	Buchstaben	41	r
10	641	Baseline			1	566	A2	Buchstaben	42	r
10	287	Baseline			1	795	A1	Zahlen	43	s
10	290	Baseline			1	644	A1	Zahlen	44	r
10	265	Baseline			1	621	A2	Buchstaben	45	s
10	373	Baseline			1	637	A2	Buchstaben	46	r
10	299	Baseline			1	654	A1	Zahlen	47	s
10	281	Baseline			1	573	A1	Zahlen	48	r
10	342	Baseline			1	615	A2	Buchstaben	49	s
10	294	Baseline			1	562	A2	Buchstaben	50	r
10	315	Baseline			1	550	A2	Buchstaben	51	r
10	341	Baseline			0	527	A1	Zahlen	52	s
10	337	Baseline			1	611	A1	Zahlen	53	r
10	354	Baseline			1	547	A2	Buchstaben	54	s
10	284	Baseline			1	544	A2	Buchstaben	55	r
10	319	Baseline			1	746	A1	Zahlen	56	s
10	460	Baseline			1	641	A1	Zahlen	57	r
10	335	Baseline			1	601	A2	Buchstaben	58	s
10	353	Baseline			1	610	A2	Buchstaben	59	r
10	319	Baseline			1	707	A1	Zahlen	60	s
10	301	Baseline			1	577	A1	Zahlen	61	r
10	306	Baseline			1	717	A2	Buchstaben	62	s
10	304	Baseline			1	620	A1	Zahlen	63	s
10	363	Baseline			1	619	A2	Buchstaben	64	s
10	322	Baseline			1	588	A1	Zahlen	65	s
10	323	Baseline			1	573	A2	Buchstaben	66	s
10	572	Baseline			1	644	A1	Zahlen	67	s
10	304	Baseline			1	691	A1	Zahlen	68	r
10	397	Baseline			1	612	A2	Buchstaben	69	s
10	339	Baseline			1	765	A1	Zahlen	70	s
10	397	Baseline			1	597	A2	Buchstaben	71	s
10	444	Baseline			1	554	A2	Buchstaben	72	r
10	296	Baseline			1	627	A1	Zahlen	73	s
10	291	Baseline			1	678	A2	Buchstaben	74	s
10	363	Baseline			1	595	A1	Zahlen	75	s
10	283	Baseline			1	639	A1	Zahlen	76	r
10	341	Baseline			1	550	A2	Buchstaben	77	s
10	327	Baseline			1	585	A1	Zahlen	78	s
10	336	Baseline			1	618	A2	Buchstaben	79	s
10	392	Baseline			1	672	A2	Buchstaben	80	r
10	284	Baseline			1	632	A1	Zahlen	81	s
10	375	Baseline			1	743	A1	Zahlen	82	r
10	329	Baseline			1	595	A1	Zahlen	83	r
10	338	Baseline			1	756	A2	Buchstaben	84	s
10	326	Baseline			1	560	A2	Buchstaben	85	r
10	231	Baseline			1	565	A1	Zahlen	86	s
10	350	Baseline			1	608	A1	Zahlen	87	r
10	341	Baseline			1	631	A2	Buchstaben	88	s
10	372	Baseline			1	572	A1	Zahlen	89	s
10	324	Baseline			1	678	A2	Buchstaben	90	s
10	289	Baseline			1	669	A1	Zahlen	91	s
10	409	Baseline			1	544	A2	Buchstaben	92	s
10	416	Baseline			1	559	A2	Buchstaben	93	r
10	333	Baseline			1	663	A1	Zahlen	94	s
10	291	Baseline			1	535	A1	Zahlen	95	r
10	441	Baseline			1	598	A2	Buchstaben	96	s
10	269	Baseline			1	626	A2	Buchstaben	97	r
10	311	Baseline			1	585	A1	Zahlen	98	s
10	264	Baseline			1	589	A1	Zahlen	99	r
10	357	Baseline			1	638	A2	Buchstaben	100	s
10	315	Baseline			1	566	A2	Buchstaben	101	r
10	742	Baseline			1	632	A1	Zahlen	102	s
10	414	Baseline			1	541	A2	Buchstaben	103	s
10	310	Baseline			1	698	A1	Zahlen	104	s
10	315	Baseline			1	630	A1	Zahlen	105	r
10	341	Baseline			1	583	A1	Zahlen	106	r
10	492	Baseline			1	672	A2	Buchstaben	107	s
10	389	Baseline			1	564	A2	Buchstaben	108	r
10	419	Baseline			1	553	A2	Buchstaben	109	r
10	353	Baseline			1	547	A1	Zahlen	110	s
10	434	Baseline			1	712	A2	Buchstaben	111	s
10	403	Baseline			1	626	A1	Zahlen	112	s
10	345	Baseline			1	618	A1	Zahlen	113	r
10	378	Baseline			1	595	A2	Buchstaben	114	s
10	449	Baseline			1	622	A1	Zahlen	115	s
10	325	Baseline			1	727	A2	Buchstaben	116	s
10	290	Baseline			1	662	A1	Zahlen	117	s
10	419	Baseline			1	666	A2	Buchstaben	118	s
10	357	Baseline			1	518	A2	Buchstaben	119	r
10	335	Baseline			1	586	A1	Zahlen	120	s
10	443	Baseline			1	672	A2	Buchstaben	121	s
10	356	Baseline			1	461	A2	Buchstaben	122	r
10	339	Baseline			1	636	A1	Zahlen	123	s
10	337	Baseline			1	867	A1	Zahlen	124	r
10	391	Baseline			1	654	A2	Buchstaben	125	s
10	427	Baseline			1	561	A2	Buchstaben	126	r
10	297	Baseline			1	636	A1	Zahlen	127	s
10	360	Baseline			1	649	A2	Buchstaben	128	s
10	350	Baseline			1	559	A2	Buchstaben	129	r
10	264	Baseline			1	628	A1	Zahlen	130	s
10	259	Baseline			1	600	A2	Buchstaben	131	s
10	409	Baseline			1	551	A2	Buchstaben	132	r
10	290	Baseline			1	573	A1	Zahlen	133	s
10	530	Baseline			1	661	A1	Zahlen	134	r
10	385	Baseline			1	576	A1	Zahlen	135	r
10	295	Baseline			1	635	A2	Buchstaben	136	s
10	305	Baseline			1	565	A2	Buchstaben	137	r
10	453	Baseline			1	699	A1	Zahlen	138	s
10	392	Baseline			1	511	A1	Zahlen	139	r
10	427	Baseline			1	521	A2	Buchstaben	140	s
10	204	Baseline			1	651	A1	Zahlen	141	s
10	176	Baseline			1	584	A1	Zahlen	142	r
10	294	Baseline			1	577	A2	Buchstaben	143	s
10	290	Baseline			1	598	A1	Zahlen	144	s
10	525	Baseline			1	528	A2	Buchstaben	145	s
10	329	Baseline			1	595	A2	Buchstaben	146	r
10	289	Baseline			1	693	A1	Zahlen	147	s
10	495	Baseline			1	530	A2	Buchstaben	148	s
10	347	Baseline			1	660	A1	Zahlen	149	s
10	345	Baseline			1	610	A1	Zahlen	150	r
10	545	Baseline			1	547	A2	Buchstaben	151	s
10	235	Baseline			1	593	A2	Buchstaben	152	r
10	519	Baseline			1	642	A1	Zahlen	153	s
10	431	Baseline			1	638	A2	Buchstaben	154	s
10	489	Baseline			1	685	A1	Zahlen	155	s
10	312	Baseline			1	547	A1	Zahlen	156	r
10	444	Baseline			1	593	A2	Buchstaben	157	s
10	473	Baseline			1	662	A2	Buchstaben	158	r
10	368	Baseline			1	593	A1	Zahlen	159	s
10	633	Baseline			1	615	A1	Zahlen	160	r
10	359	Baseline			1	696	A2	Buchstaben	161	s
10	217	Baseline			1	616	A2	Buchstaben	162	r
10	125	Baseline			1	630	A1	Zahlen	163	s
10	341	Baseline			1	518	A1	Zahlen	164	r
10	152	Baseline			1	529	A2	Buchstaben	165	s
10	188	Baseline			1	508	A2	Buchstaben	166	r
10	134	Baseline			1	584	A1	Zahlen	167	s
10	233	Baseline			1	527	A1	Zahlen	168	r
10	217	Baseline			1	1031	A2	Buchstaben	169	s
10	302	Baseline			1	633	A1	Zahlen	170	s
10	317	Baseline			1	480	A2	Buchstaben	171	s
10	196	Baseline			1	539	A1	Zahlen	172	s
10	294	Baseline			1	649	A1	Zahlen	173	r
10	126	Baseline			1	568	A2	Buchstaben	174	s
10	265	Baseline			1	518	A1	Zahlen	175	s
10	151	Baseline			1	624	A2	Buchstaben	176	s
10										
10	982	Test	2	0	1	725	A1	Zahlen	1	NaN
10	1030	Test	2	3	1	476	A2	Buchstaben	2	s
10	975	Test	2	3	1	456	A1	Zahlen	3	s
10	770	Test	2	3	1	419	A2	Buchstaben	4	s
10	585	Test	1	4	1	465	A1	Zahlen	5	s
10	476	Test	2	2	1	760	A1	Zahlen	6	r
10	534	Test	2	3	1	512	A2	Buchstaben	7	s
10	1818	Test	1	4	1	482	A2	Buchstaben	8	r
10	612	Test	1	1	1	363	A1	Zahlen	9	s
10	426	Test	1	1	1	432	A1	Zahlen	10	r
10	502	Test	1	1	1	362	A2	Buchstaben	11	s
10	672	Test	1	1	1	373	A2	Buchstaben	12	r
10	436	Test	2	2	0	322	A2	Buchstaben	13	r
10	486	Test	1	4	1	354	A1	Zahlen	14	s
10	379	Test	1	1	1	347	A1	Zahlen	15	r
10	362	Test	1	1	1	490	A2	Buchstaben	16	s
10	590	Test	2	2	1	446	A2	Buchstaben	17	r
10	403	Test	1	4	1	403	A1	Zahlen	18	s
10	448	Test	2	2	1	422	A1	Zahlen	19	r
10	443	Test	1	4	1	417	A2	Buchstaben	20	s
10	462	Test	2	2	1	403	A1	Zahlen	21	s
10	386	Test	1	4	1	418	A1	Zahlen	22	r
10	368	Test	1	1	0	425	A2	Buchstaben	23	s
10	338	Test	2	2	1	476	A2	Buchstaben	24	r
10	446	Test	1	4	0	563	A1	Zahlen	25	s
10	363	Test	2	2	1	428	A1	Zahlen	26	r
10	608	Test	1	4	1	423	A2	Buchstaben	27	s
10	437	Test	1	1	1	515	A2	Buchstaben	28	r
10	356	Test	1	1	1	389	A1	Zahlen	29	s
10	372	Test	2	2	1	404	A1	Zahlen	30	r
10	419	Test	1	4	1	442	A2	Buchstaben	31	s
10	358	Test	1	1	1	455	A2	Buchstaben	32	r
10	363	Test	2	2	1	516	A1	Zahlen	33	s
10	539	Test	1	4	1	445	A1	Zahlen	34	r
10	570	Test	1	1	1	443	A2	Buchstaben	35	s
10	441	Test	1	1	1	527	A2	Buchstaben	36	r
10	392	Test	1	1	1	447	A1	Zahlen	37	s
10	309	Test	1	1	1	408	A1	Zahlen	38	r
10	903	Test	1	1	1	426	A2	Buchstaben	39	s
10	413	Test	2	2	1	404	A2	Buchstaben	40	r
10	328	Test	2	3	1	466	A1	Zahlen	41	s
10	373	Test	2	3	0	525	A1	Zahlen	42	r
10	472	Test	1	4	1	437	A1	Zahlen	43	r
10	441	Test	1	1	1	431	A2	Buchstaben	44	s
10	372	Test	2	2	1	469	A2	Buchstaben	45	r
10	386	Test	2	3	1	426	A1	Zahlen	46	s
10	511	Test	1	4	1	402	A2	Buchstaben	47	s
10	369	Test	1	1	1	402	A2	Buchstaben	48	r
10	441	Test	1	1	1	494	A1	Zahlen	49	s
10	299	Test	2	2	1	462	A1	Zahlen	50	r
10	338	Test	2	3	1	436	A2	Buchstaben	51	s
10	352	Test	1	4	1	378	A2	Buchstaben	52	r
10	360	Test	2	2	1	513	A1	Zahlen	53	s
10	392	Test	1	4	1	504	A2	Buchstaben	54	s
10	379	Test	1	1	1	532	A2	Buchstaben	55	r
10	343	Test	1	1	1	464	A1	Zahlen	56	s
10	316	Test	1	1	1	446	A1	Zahlen	57	r
10	387	Test	1	1	1	539	A1	Zahlen	58	r
10	514	Test	1	1	1	461	A2	Buchstaben	59	s
10	481	Test	2	2	1	413	A2	Buchstaben	60	r
10	328	Test	1	4	1	466	A1	Zahlen	61	s
10	310	Test	2	2	1	456	A1	Zahlen	62	r
10	403	Test	1	4	1	468	A2	Buchstaben	63	s
10	423	Test	1	1	1	405	A2	Buchstaben	64	r
10	329	Test	1	1	1	428	A1	Zahlen	65	s
10	361	Test	1	1	1	409	A1	Zahlen	66	r
10	351	Test	1	1	1	480	A2	Buchstaben	67	s
10	669	Test	2	2	1	538	A1	Zahlen	68	s
10	413	Test	1	4	1	523	A2	Buchstaben	69	s
10	357	Test	1	1	1	486	A1	Zahlen	70	s
10	378	Test	2	2	1	450	A1	Zahlen	71	r
10	519	Test	2	3	1	442	A2	Buchstaben	72	s
10	412	Test	2	3	0	627	A2	Buchstaben	73	r
10	382	Test	2	3	1	454	A1	Zahlen	74	s
10	338	Test	2	3	1	475	A1	Zahlen	75	r
10	630	Test	1	4	1	404	A2	Buchstaben	76	s
10	363	Test	1	1	1	484	A2	Buchstaben	77	r
10	352	Test	1	1	1	425	A2	Buchstaben	78	r
10	430	Test	1	1	1	564	A1	Zahlen	79	s
10	693	Test	2	2	1	480	A1	Zahlen	80	r
10	467	Test	2	3	1	432	A2	Buchstaben	81	s
10	317	Test	2	3	1	464	A2	Buchstaben	82	r
10	410	Test	1	4	1	457	A1	Zahlen	83	s
10	341	Test	2	2	1	454	A1	Zahlen	84	r
10	370	Test	1	4	1	459	A2	Buchstaben	85	s
10	320	Test	2	2	1	491	A2	Buchstaben	86	r
10	324	Test	1	4	1	503	A2	Buchstaben	87	r
10	360	Test	2	2	1	488	A1	Zahlen	88	s
10	283	Test	1	4	1	551	A1	Zahlen	89	r
10	326	Test	2	2	1	465	A1	Zahlen	90	r
10	508	Test	1	4	1	471	A2	Buchstaben	91	s
10	392	Test	2	2	1	433	A1	Zahlen	92	s
10	405	Test	1	4	1	460	A2	Buchstaben	93	s
10	303	Test	1	1	1	434	A2	Buchstaben	94	r
10	312	Test	1	1	1	402	A2	Buchstaben	95	r
10	346	Test	2	2	1	467	A1	Zahlen	96	s
10	324	Test	1	4	1	583	A1	Zahlen	97	r
10	375	Test	2	2	1	511	A2	Buchstaben	98	s
10	359	Test	2	3	1	456	A2	Buchstaben	99	r
10	290	Test	2	3	1	462	A1	Zahlen	100	s
10	338	Test	2	3	1	452	A1	Zahlen	101	r
10	343	Test	2	3	1	425	A2	Buchstaben	102	s
10	350	Test	1	4	1	464	A2	Buchstaben	103	r
10	307	Test	2	2	1	510	A2	Buchstaben	104	r
10	350	Test	2	3	1	496	A1	Zahlen	105	s
10	298	Test	2	3	1	478	A1	Zahlen	106	r
10	311	Test	2	3	1	426	A1	Zahlen	107	r
10	380	Test	1	4	1	389	A2	Buchstaben	108	s
10	346	Test	1	1	1	419	A2	Buchstaben	109	r
10	359	Test	1	1	1	504	A1	Zahlen	110	s
10	291	Test	2	2	1	438	A1	Zahlen	111	r
10	409	Test	1	4	1	528	A2	Buchstaben	112	s
10	377	Test	1	1	1	497	A2	Buchstaben	113	r
10	476	Test	1	1	1	432	A1	Zahlen	114	s
10	325	Test	2	2	1	479	A1	Zahlen	115	r
10	321	Test	1	4	1	452	A1	Zahlen	116	r
10	353	Test	2	2	1	450	A2	Buchstaben	117	s
10	462	Test	2	3	1	459	A2	Buchstaben	118	r
10	447	Test	1	4	1	492	A2	Buchstaben	119	r
10	320	Test	2	2	1	443	A1	Zahlen	120	s
10	350	Test	1	4	1	463	A1	Zahlen	121	r
10	389	Test	2	2	1	549	A1	Zahlen	122	r
10	356	Test	1	4	1	437	A2	Buchstaben	123	s
10	241	Test	2	2	1	391	A2	Buchstaben	124	r
10	325	Test	1	4	1	471	A1	Zahlen	125	s
10	314	Test	2	2	1	485	A1	Zahlen	126	r
10	310	Test	2	3	1	417	A2	Buchstaben	127	s
10	375	Test	1	4	1	487	A2	Buchstaben	128	r
10	217	Test	1	1	1	455	A2	Buchstaben	129	r
10	253	Test	1	1	1	682	A1	Zahlen	130	s
10	372	Test	2	2	1	452	A1	Zahlen	131	r
10	321	Test	2	3	1	500	A1	Zahlen	132	r
10	384	Test	1	4	1	448	A2	Buchstaben	133	s
10	331	Test	1	1	1	477	A1	Zahlen	134	s
10	336	Test	2	2	1	530	A2	Buchstaben	135	s
10	252	Test	2	3	1	482	A2	Buchstaben	136	r
10	269	Test	1	4	1	457	A1	Zahlen	137	s
10	275	Test	1	1	1	431	A1	Zahlen	138	r
10	426	Test	2	2	1	528	A2	Buchstaben	139	s
10	351	Test	2	3	1	464	A2	Buchstaben	140	r
10	299	Test	2	3	1	550	A1	Zahlen	141	s
10	395	Test	1	4	1	579	A1	Zahlen	142	r
10	360	Test	1	1	1	440	A1	Zahlen	143	r
10	501	Test	1	1	1	472	A2	Buchstaben	144	s
10	420	Test	1	1	1	427	A2	Buchstaben	145	r
10	327	Test	2	2	1	489	A1	Zahlen	146	s
10	373	Test	2	3	1	429	A1	Zahlen	147	r
10	400	Test	1	4	1	432	A2	Buchstaben	148	s
10	292	Test	2	2	1	392	A2	Buchstaben	149	r
10	326	Test	2	3	1	576	A2	Buchstaben	150	r
10	407	Test	2	3	1	462	A1	Zahlen	151	s
10	343	Test	1	4	1	512	A1	Zahlen	152	r
10	210	Test	2	2	1	473	A1	Zahlen	153	r
10	531	Test	2	3	1	428	A2	Buchstaben	154	s
10	504	Test	2	3	1	395	A2	Buchstaben	155	r
10	449	Test	1	4	1	439	A2	Buchstaben	156	r
10	363	Test	1	1	1	508	A1	Zahlen	157	s
10	316	Test	1	1	1	431	A1	Zahlen	158	r
10	301	Test	2	2	1	441	A2	Buchstaben	159	s
10	323	Test	2	3	1	437	A1	Zahlen	160	s
10	307	Test	2	3	1	478	A1	Zahlen	161	r
10	383	Test	1	4	1	431	A2	Buchstaben	162	s
10	420	Test	2	2	1	499	A2	Buchstaben	163	r
10	316	Test	2	3	1	463	A1	Zahlen	164	s
10	321	Test	2	3	1	468	A1	Zahlen	165	r
10	336	Test	1	4	1	426	A1	Zahlen	166	r
10	320	Test	1	1	1	531	A2	Buchstaben	167	s
10	357	Test	1	1	1	413	A2	Buchstaben	168	r
10	394	Test	2	2	1	577	A1	Zahlen	169	s
10	126	Test	2	3	1	480	A1	Zahlen	170	r
10	258	Test	1	4	1	423	A1	Zahlen	171	r
10	427	Test	2	2	1	353	A2	Buchstaben	172	s
10	426	Test	1	4	1	496	A2	Buchstaben	173	r
10	312	Test	2	2	1	539	A1	Zahlen	174	s
10	196	Test	2	3	1	484	A1	Zahlen	175	r
10	206	Test	2	3	1	445	A2	Buchstaben	176	s
10	233	Test	2	3	1	463	A1	Zahlen	177	s
10	379	Test	1	4	1	611	A2	Buchstaben	178	s
10	271	Test	1	1	1	500	A2	Buchstaben	179	r
10	284	Test	1	1	1	441	A1	Zahlen	180	s
10	302	Test	1	1	1	410	A1	Zahlen	181	r
10	230	Test	2	2	1	412	A1	Zahlen	182	r
10	402	Test	2	3	1	401	A2	Buchstaben	183	s
10	287	Test	1	4	1	419	A2	Buchstaben	184	r
10	257	Test	1	1	1	398	A1	Zahlen	185	s
10	323	Test	2	2	1	470	A2	Buchstaben	186	s
10	136	Test	2	3	1	442	A1	Zahlen	187	s
10	245	Test	1	4	1	443	A2	Buchstaben	188	s
10	310	Test	2	2	1	481	A1	Zahlen	189	s
10	331	Test	1	4	1	429	A1	Zahlen	190	r
10	307	Test	2	2	1	526	A1	Zahlen	191	r
10	341	Test	2	3	1	455	A2	Buchstaben	192	s
10	385	Test	1	4	1	425	A2	Buchstaben	193	r
10	310	Test	2	2	1	536	A2	Buchstaben	194	r
10	185	Test	1	4	1	490	A1	Zahlen	195	s
10	315	Test	1	1	1	462	A1	Zahlen	196	r
10	691	Test	1	1	1	438	A1	Zahlen	197	r
10	356	Test	1	1	1	405	A2	Buchstaben	198	s
10	364	Test	1	1	1	413	A1	Zahlen	199	s
10	97	Test	2	2	1	476	A1	Zahlen	200	r
10	133	Test	1	4	1	575	A2	Buchstaben	201	s
10	334	Test	2	2	1	488	A1	Zahlen	202	s
10	633	Test	1	4	1	447	A2	Buchstaben	203	s
10	378	Test	1	1	1	522	A1	Zahlen	204	s
10	331	Test	1	1	1	437	A2	Buchstaben	205	s
10	522	Test	2	2	1	420	A1	Zahlen	206	s
10	465	Test	2	3	1	462	A1	Zahlen	207	r
10	431	Test	1	4	1	397	A2	Buchstaben	208	s
10	330	Test	1	1	1	412	A2	Buchstaben	209	r
10	337	Test	2	2	1	459	A2	Buchstaben	210	r
10	302	Test	2	3	1	466	A1	Zahlen	211	s
10	243	Test	2	3	1	424	A1	Zahlen	212	r
10	335	Test	1	4	1	385	A2	Buchstaben	213	s
10	344	Test	2	2	1	522	A2	Buchstaben	214	r
10	298	Test	1	4	1	525	A1	Zahlen	215	s
10	333	Test	2	2	1	591	A1	Zahlen	216	r
10	365	Test	1	4	1	430	A1	Zahlen	217	r
10	378	Test	2	2	1	410	A2	Buchstaben	218	s
10	343	Test	1	4	1	496	A2	Buchstaben	219	r
10	346	Test	1	1	1	395	A1	Zahlen	220	s
10	296	Test	1	1	1	396	A1	Zahlen	221	r
10	281	Test	1	1	1	469	A2	Buchstaben	222	s
10	353	Test	2	2	1	386	A2	Buchstaben	223	r
10	280	Test	1	4	1	436	A2	Buchstaben	224	r
10	337	Test	2	2	1	523	A1	Zahlen	225	s
10	345	Test	1	4	1	419	A1	Zahlen	226	r
10	439	Test	2	2	1	484	A2	Buchstaben	227	s
10	343	Test	1	4	1	472	A2	Buchstaben	228	r
10	354	Test	2	2	1	475	A1	Zahlen	229	s
10	262	Test	2	3	1	410	A2	Buchstaben	230	s
10	319	Test	1	4	1	442	A1	Zahlen	231	s
10	254	Test	1	1	1	579	A1	Zahlen	232	r
10	363	Test	1	1	1	428	A2	Buchstaben	233	s
10	335	Test	1	1	0	370	A2	Buchstaben	234	r
10	441	Test	1	1	1	462	A2	Buchstaben	235	r
10	625	Test	2	2	1	447	A1	Zahlen	236	s
10	666	Test	1	4	1	399	A2	Buchstaben	237	s
10	429	Test	1	1	1	515	A2	Buchstaben	238	r
10	467	Test	1	1	1	424	A1	Zahlen	239	s
10	437	Test	1	1	1	483	A1	Zahlen	240	r
10	568	Test	2	2	1	441	A2	Buchstaben	241	s
10	405	Test	2	3	1	548	A2	Buchstaben	242	r
10	587	Test	2	3	1	371	A1	Zahlen	243	s
10	866	Test	1	4	1	383	A1	Zahlen	244	r
10	368	Test	1	1	1	448	A1	Zahlen	245	r
10	375	Test	1	1	1	399	A2	Buchstaben	246	s
10	398	Test	2	2	1	445	A2	Buchstaben	247	r
10	335	Test	2	3	1	410	A1	Zahlen	248	s
10	319	Test	2	3	1	395	A2	Buchstaben	249	s
10	335	Test	2	3	1	377	A2	Buchstaben	250	r
10	360	Test	2	3	1	432	A1	Zahlen	251	s
10	637	Test	2	3	1	492	A2	Buchstaben	252	s
10	455	Test	2	3	1	492	A1	Zahlen	253	s
10	326	Test	2	3	1	488	A1	Zahlen	254	r
10	404	Test	1	4	1	460	A2	Buchstaben	255	s
10	369	Test	1	1	1	409	A2	Buchstaben	256	r
10	304	Test	2	2	1	396	A1	Zahlen	257	s
10	353	Test	1	4	1	426	A1	Zahlen	258	r
10	352	Test	1	1	1	458	A1	Zahlen	259	r
10	493	Test	1	1	1	393	A2	Buchstaben	260	s
10	705	Test	2	2	1	380	A2	Buchstaben	261	r
10	351	Test	1	4	1	385	A1	Zahlen	262	s
10	328	Test	2	2	1	386	A1	Zahlen	263	r
10	462	Test	2	3	1	436	A1	Zahlen	264	r
10	423	Test	2	3	1	429	A2	Buchstaben	265	s
10	345	Test	2	3	1	427	A2	Buchstaben	266	r
10	439	Test	2	3	1	412	A2	Buchstaben	267	r
10	267	Test	2	3	1	439	A1	Zahlen	268	s
10	340	Test	2	3	1	469	A1	Zahlen	269	r
10	287	Test	2	3	1	419	A1	Zahlen	270	r
10	337	Test	1	4	1	459	A2	Buchstaben	271	s
10	310	Test	2	2	1	401	A2	Buchstaben	272	r
10	374	Test	2	3	1	406	A2	Buchstaben	273	r
10	316	Test	1	4	1	463	A1	Zahlen	274	s
10	297	Test	2	2	1	405	A1	Zahlen	275	r
10	314	Test	2	3	1	397	A2	Buchstaben	276	s
10	290	Test	2	3	1	437	A2	Buchstaben	277	r
10	280	Test	2	3	1	460	A2	Buchstaben	278	r
10	320	Test	1	4	1	475	A1	Zahlen	279	s
10	518	Test	1	1	1	393	A1	Zahlen	280	r
10	249	Test	1	1	1	462	A1	Zahlen	281	r
10	321	Test	2	2	1	467	A2	Buchstaben	282	s
10	280	Test	1	4	1	564	A1	Zahlen	283	s
10	266	Test	1	1	1	495	A1	Zahlen	284	r
10	328	Test	2	2	1	402	A2	Buchstaben	285	s
10	329	Test	2	3	1	411	A2	Buchstaben	286	r
10	662	Test	1	4	1	451	A2	Buchstaben	287	r
10	455	Test	1	1	1	405	A1	Zahlen	288	s
10	402	Test	1	1	1	441	A1	Zahlen	289	r
10	455	Test	2	2	1	461	A2	Buchstaben	290	s
10	304	Test	2	3	1	403	A2	Buchstaben	291	r
10	313	Test	1	4	1	428	A1	Zahlen	292	s
10	338	Test	2	2	1	396	A1	Zahlen	293	r
10	266	Test	2	3	1	486	A1	Zahlen	294	r
10	487	Test	2	3	1	396	A2	Buchstaben	295	s
10	369	Test	1	4	1	443	A2	Buchstaben	296	r
10	319	Test	1	1	1	385	A2	Buchstaben	297	r
10	374	Test	2	2	1	414	A1	Zahlen	298	s
10	277	Test	2	3	1	553	A1	Zahlen	299	r
10	226	Test	2	3	1	521	A1	Zahlen	300	r
10	227	Test	2	3	1	433	A2	Buchstaben	301	s
10	212	Test	2	3	1	419	A2	Buchstaben	302	r
10	193	Test	1	4	1	400	A2	Buchstaben	303	r
10	312	Test	2	2	1	419	A1	Zahlen	304	s
10	264	Test	1	4	1	436	A1	Zahlen	305	r
10	409	Test	2	2	1	463	A2	Buchstaben	306	s
10	312	Test	2	3	1	483	A1	Zahlen	307	s
10	496	Test	1	4	1	419	A1	Zahlen	308	r
10	272	Test	2	2	1	493	A2	Buchstaben	309	s
10	352	Test	2	3	1	409	A2	Buchstaben	310	r
10	317	Test	1	4	1	536	A1	Zahlen	311	s
10	336	Test	1	1	1	393	A1	Zahlen	312	r
10	303	Test	2	2	1	523	A2	Buchstaben	313	s
10	394	Test	1	4	1	433	A2	Buchstaben	314	r
10	375	Test	1	1	1	455	A2	Buchstaben	315	r
10	307	Test	2	2	1	533	A1	Zahlen	316	s
10	261	Test	2	3	1	426	A1	Zahlen	317	r
10	517	Test	1	4	1	432	A1	Zahlen	318	r
10	455	Test	1	1	1	404	A2	Buchstaben	319	s
10	268	Test	2	2	1	544	A2	Buchstaben	320	r
10	255	Test	1	4	1	508	A1	Zahlen	321	s
10	200	Test	2	2	1	719	A1	Zahlen	322	r
10	648	Test	1	4	1	486	A1	Zahlen	323	r
10	480	Test	2	2	1	460	A2	Buchstaben	324	s
10	608	Test	2	3	1	431	A2	Buchstaben	325	r
10	265	Test	1	4	1	526	A1	Zahlen	326	s
10	326	Test	2	2	1	464	A1	Zahlen	327	r
10	444	Test	1	4	1	385	A2	Buchstaben	328	s
10	425	Test	2	2	1	471	A2	Buchstaben	329	r
10	347	Test	2	3	1	420	A1	Zahlen	330	s
10	304	Test	2	3	1	386	A1	Zahlen	331	r
10	311	Test	2	3	1	410	A2	Buchstaben	332	s
10	391	Test	1	4	1	398	A2	Buchstaben	333	r
10	325	Test	2	2	1	439	A1	Zahlen	334	s
10	388	Test	2	3	1	484	A1	Zahlen	335	r
10	366	Test	2	3	1	430	A2	Buchstaben	336	s
10	297	Test	2	3	1	469	A2	Buchstaben	337	r
10	328	Test	1	4	1	498	A1	Zahlen	338	s
10	341	Test	2	2	1	494	A1	Zahlen	339	r
10	361	Test	2	3	1	409	A2	Buchstaben	340	s
10	446	Test	2	3	1	587	A2	Buchstaben	341	r
10	264	Test	1	4	1	476	A2	Buchstaben	342	r
10	318	Test	2	2	1	432	A1	Zahlen	343	s
10	501	Test	1	4	1	456	A1	Zahlen	344	r
10	334	Test	1	1	1	408	A2	Buchstaben	345	s
10	332	Test	1	1	1	382	A2	Buchstaben	346	r
10	311	Test	1	1	1	434	A1	Zahlen	347	s
10	310	Test	1	1	1	441	A2	Buchstaben	348	s
10	175	Test	1	1	0	439	A1	Zahlen	349	s
10	537	Test	2	2	1	515	A2	Buchstaben	350	s
10	252	Test	2	3	1	434	A2	Buchstaben	351	r
10	29	Test	1	4	1	555	A1	Zahlen	352	s
11		Practice			1	877	A2			
11		Practice			1	529	A2			
11		Practice			1	660	A2			
11		Practice			1	582	A2			
11		Practice			1	566	A2			
11		Practice			1	605	A2			
11		Practice			1	642	A2			
11		Practice			1	609	A2			
11		Practice			1	662	A2			
11		Practice			1	657	A2			
11		Practice			1	583	A2			
11		Practice			1	822	A2			
11		Practice			1	629	A2			
11		Practice			1	570	A2			
11		Practice			1	652	A2			
11		Practice			1	945	A2			
11		Practice			1	796	A1			
11		Practice			1	652	A1			
11		Practice			1	728	A1			
11		Practice			1	938	A1			
11		Practice			1	723	A1			
11		Practice			1	783	A1			
11		Practice			1	599	A1			
11		Practice			1	966	A1			
11		Practice			1	589	A1			
11		Practice			1	646	A1			
11		Practice			1	843	A1			
11		Practice			1	598	A1			
11		Practice			1	876	A1			
11		Practice			1	656	A1			
11		Practice			1	599	A1			
11		Practice			1	893	A1			
11	1154	Practice			1	1619	A2	Buchstaben		NaN
11	1187	Practice			1	1395	A1	Zahlen		s
11	819	Practice			1	917	A2	Buchstaben		s
11	796	Practice			1	796	A2	Buchstaben		r
11	749	Practice			1	1006	A1	Zahlen		s
11	869	Practice			1	970	A2	Buchstaben		s
11	528	Practice			1	1067	A1	Zahlen		s
11	581	Practice			1	749	A1	Zahlen		r
11	500	Practice			1	840	A2	Buchstaben		s
11	516	Practice			1	935	A1	Zahlen		s
11	439	Practice			1	788	A1	Zahlen		r
11	411	Practice			1	794	A2	Buchstaben		s
11	372	Practice			1	778	A2	Buchstaben		r
11	452	Practice			1	985	A1	Zahlen		s
11	303	Practice			1	956	A1	Zahlen		r
11	490	Practice			1	1189	A1	Zahlen		r
11	555	Baseline			1	764	A2	Buchstaben	1	NaN
11	283	Baseline			1	695	A1	Zahlen	2	s
11	272	Baseline			1	645	A1	Zahlen	3	r
11	600	Baseline			1	847	A2	Buchstaben	4	s
11	613	Baseline			1	668	A2	Buchstaben	5	r
11	417	Baseline			1	871	A2	Buchstaben	6	r
11	283	Baseline			1	791	A1	Zahlen	7	s
11	270	Baseline			1	738	A1	Zahlen	8	r
11	309	Baseline			1	688	A2	Buchstaben	9	s
11	308	Baseline			1	655	A2	Buchstaben	10	r
11	380	Baseline			1	666	A2	Buchstaben	11	r
11	280	Baseline			1	748	A1	Zahlen	12	s
11	300	Baseline			1	872	A1	Zahlen	13	r
11	444	Baseline			1	794	A2	Buchstaben	14	s
11	553	Baseline			1	651	A2	Buchstaben	15	r
11	497	Baseline			1	701	A1	Zahlen	16	s
11	457	Baseline			1	646	A1	Zahlen	17	r
11	273	Baseline			1	621	A1	Zahlen	18	r
11	345	Baseline			1	643	A2	Buchstaben	19	s
11	417	Baseline			1	656	A2	Buchstaben	20	r
11	291	Baseline			1	697	A1	Zahlen	21	s
11	411	Baseline			1	722	A2	Buchstaben	22	s
11	572	Baseline			1	940	A2	Buchstaben	23	r
11	382	Baseline			1	808	A1	Zahlen	24	s
11	590	Baseline			1	685	A2	Buchstaben	25	s
11	328	Baseline			1	898	A1	Zahlen	26	s
11	291	Baseline			1	695	A1	Zahlen	27	r
11	432	Baseline			1	1111	A1	Zahlen	28	r
11	496	Baseline			1	716	A2	Buchstaben	29	s
11	656	Baseline			1	861	A1	Zahlen	30	s
11	399	Baseline			1	727	A2	Buchstaben	31	s
11	304	Baseline			1	619	A2	Buchstaben	32	r
11	314	Baseline			1	717	A2	Buchstaben	33	r
11	342	Baseline			1	839	A1	Zahlen	34	s
11	502	Baseline			1	905	A1	Zahlen	35	r
11	612	Baseline			0	875	A2	Buchstaben	36	s
11	1019	Baseline			1	786	A2	Buchstaben	37	r
11	400	Baseline			1	943	A1	Zahlen	38	s
11	478	Baseline			1	635	A1	Zahlen	39	r
11	744	Baseline			1	746	A2	Buchstaben	40	s
11	498	Baseline			1	830	A2	Buchstaben	41	r
11	620	Baseline			1	1259	A1	Zahlen	42	s
11	337	Baseline			1	771	A1	Zahlen	43	r
11	340	Baseline			1	766	A2	Buchstaben	44	s
11	788	Baseline			1	701	A2	Buchstaben	45	r
11	623	Baseline			1	669	A2	Buchstaben	46	r
11	561	Baseline			1	642	A2	Buchstaben	47	r
11	381	Baseline			1	765	A1	Zahlen	48	s
11	581	Baseline			1	733	A1	Zahlen	49	r
11	519	Baseline			1	729	A2	Buchstaben	50	s
11	459	Baseline			1	920	A1	Zahlen	51	s
11	442	Baseline			1	743	A2	Buchstaben	52	s
11	600	Baseline			1	911	A1	Zahlen	53	s
11	361	Baseline			1	690	A2	Buchstaben	54	s
11	541	Baseline			1	679	A2	Buchstaben	55	r
11	365	Baseline			1	685	A2	Buchstaben	56	r
11	586	Baseline			1	602	A2	Buchstaben	57	r
11	314	Baseline			1	788	A1	Zahlen	58	s
11	330	Baseline			1	788	A2	Buchstaben	59	s
11	397	Baseline			1	684	A2	Buchstaben	60	r
11	511	Baseline			1	770	A1	Zahlen	61	s
11	576	Baseline			1	840	A2	Buchstaben	62	s
11	394	Baseline			1	682	A1	Zahlen	63	s
11	407	Baseline			1	638	A2	Buchstaben	64	s
11	489	Baseline			1	582	A2	Buchstaben	65	r
11	285	Baseline			1	737	A1	Zahlen	66	s
11	500	Baseline			1	959	A1	Zahlen	67	r
11	487	Baseline			1	795	A1	Zahlen	68	r
11	410	Baseline			1	801	A2	Buchstaben	69	s
11	265	Baseline			1	750	A1	Zahlen	70	s
11	265	Baseline			1	821	A1	Zahlen	71	r
11	660	Baseline			1	929	A2	Buchstaben	72	s
11	529	Baseline			1	683	A2	Buchstaben	73	r
11	472	Baseline			1	845	A2	Buchstaben	74	r
11	354	Baseline			1	691	A2	Buchstaben	75	r
11	392	Baseline			1	688	A2	Buchstaben	76	r
11	370	Baseline			1	587	A2	Buchstaben	77	r
11	539	Baseline			1	637	A2	Buchstaben	78	r
11	403	Baseline			1	763	A2	Buchstaben	79	r
11	362	Baseline			0	786	A1	Zahlen	80	s
11	397	Baseline			1	893	A1	Zahlen	81	r
11	632	Baseline			1	814	A1	Zahlen	82	r
11	725	Baseline			1	807	A2	Buchstaben	83	s
11	421	Baseline			1	755	A2	Buchstaben	84	r
11	372	Baseline			1	853	A2	Buchstaben	85	r
11	393	Baseline			1	625	A2	Buchstaben	86	r
11	436	Baseline			1	713	A2	Buchstaben	87	r
11	243	Baseline			1	720	A2	Buchstaben	88	r
11	284	Baseline			1	712	A1	Zahlen	89	s
11	584	Baseline			1	944	A2	Buchstaben	90	s
11	482	Baseline			1	1286	A2	Buchstaben	91	r
11	291	Baseline			1	567	A2	Buchstaben	92	r
11	289	Baseline			1	701	A1	Zahlen	93	s
11	257	Baseline			1	773	A1	Zahlen	94	r
11	247	Baseline			1	628	A2	Buchstaben	95	s
11	321	Baseline			1	836	A2	Buchstaben	96	r
11	264	Baseline			1	861	A1	Zahlen	97	s
11	432	Baseline			1	662	A1	Zahlen	98	r
11	492	Baseline			1	640	A2	Buchstaben	99	s
11	460	Baseline			1	873	A2	Buchstaben	100	r
11	588	Baseline			1	693	A2	Buchstaben	101	r
11	849	Baseline			1	807	A2	Buchstaben	102	r
11	564	Baseline			1	693	A2	Buchstaben	103	r
11	648	Baseline			1	862	A2	Buchstaben	104	r
11	329	Baseline			1	947	A1	Zahlen	105	s
11	451	Baseline			1	672	A1	Zahlen	106	r
11	500	Baseline			1	823	A1	Zahlen	107	r
11	533	Baseline			1	1295	A1	Zahlen	108	r
11	364	Baseline			0	893	A2	Buchstaben	109	s
11	446	Baseline			1	948	A2	Buchstaben	110	r
11	414	Baseline			1	1380	A2	Buchstaben	111	r
11	445	Baseline			0	1435	A1	Zahlen	112	s
11	493	Baseline			1	808	A2	Buchstaben	113	s
11	592	Baseline			1	719	A2	Buchstaben	114	r
11	249	Baseline			1	647	A1	Zahlen	115	s
11	298	Baseline			1	622	A1	Zahlen	116	r
11	461	Baseline			1	578	A1	Zahlen	117	r
11	474	Baseline			1	662	A1	Zahlen	118	r
11	592	Baseline			1	656	A1	Zahlen	119	r
11	708	Baseline			1	743	A2	Buchstaben	120	s
11	377	Baseline			1	649	A1	Zahlen	121	s
11	469	Baseline			0	866	A2	Buchstaben	122	s
11	490	Baseline			1	1142	A2	Buchstaben	123	r
11	319	Baseline			1	786	A2	Buchstaben	124	r
11	776	Baseline			1	609	A1	Zahlen	125	s
11	689	Baseline			1	1405	A1	Zahlen	126	r
11	452	Baseline			1	698	A1	Zahlen	127	r
11	499	Baseline			1	814	A1	Zahlen	128	r
11	516	Baseline			1	863	A1	Zahlen	129	r
11	611	Baseline			1	1370	A1	Zahlen	130	r
11	450	Baseline			1	767	A2	Buchstaben	131	s
11	511	Baseline			1	738	A1	Zahlen	132	s
11	340	Baseline			1	1046	A2	Buchstaben	133	s
11	235	Baseline			1	705	A1	Zahlen	134	s
11	265	Baseline			1	678	A1	Zahlen	135	r
11	264	Baseline			1	708	A1	Zahlen	136	r
11	271	Baseline			1	860	A1	Zahlen	137	r
11	616	Baseline			0	1031	A2	Buchstaben	138	s
11	344	Baseline			1	738	A2	Buchstaben	139	r
11	820	Baseline			1	787	A2	Buchstaben	140	r
11	315	Baseline			1	630	A2	Buchstaben	141	r
11	364	Baseline			1	636	A1	Zahlen	142	s
11	530	Baseline			1	621	A1	Zahlen	143	r
11	660	Baseline			1	953	A1	Zahlen	144	r
11	480	Baseline			1	1205	A1	Zahlen	145	r
11	786	Baseline			1	1106	A2	Buchstaben	146	s
11	533	Baseline			1	696	A1	Zahlen	147	s
11	642	Baseline			1	656	A1	Zahlen	148	r
11	538	Baseline			1	1412	A2	Buchstaben	149	s
11	643	Baseline			0	1071	A2	Buchstaben	150	r
11	426	Baseline			1	896	A2	Buchstaben	151	r
11	553	Baseline			1	746	A2	Buchstaben	152	r
11	581	Baseline			1	645	A2	Buchstaben	153	r
11	481	Baseline			1	558	A2	Buchstaben	154	r
11	647	Baseline			1	597	A2	Buchstaben	155	r
11	250	Baseline			1	943	A1	Zahlen	156	s
11	360	Baseline			1	1241	A1	Zahlen	157	r
11	285	Baseline			1	840	A1	Zahlen	158	r
11	359	Baseline			1	608	A1	Zahlen	159	r
11	420	Baseline			1	587	A1	Zahlen	160	r
11	329	Baseline			1	731	A1	Zahlen	161	r
11	437	Baseline			1	1051	A2	Buchstaben	162	s
11	254	Baseline			1	1131	A2	Buchstaben	163	r
11	301	Baseline			1	1049	A1	Zahlen	164	s
11	343	Baseline			1	849	A2	Buchstaben	165	s
11	292	Baseline			1	1432	A1	Zahlen	166	s
11	358	Baseline			1	718	A2	Buchstaben	167	s
11	303	Baseline			1	779	A1	Zahlen	168	s
11	1547	Baseline			1	1061	A2	Buchstaben	169	s
11	304	Baseline			1	596	A2	Buchstaben	170	r
11	314	Baseline			1	821	A1	Zahlen	171	s
11	324	Baseline			1	942	A1	Zahlen	172	r
11	886	Baseline			1	634	A1	Zahlen	173	r
11	645	Baseline			1	763	A2	Buchstaben	174	s
11	612	Baseline			1	1083	A1	Zahlen	175	s
11	800	Baseline			1	872	A2	Buchstaben	176	s
11										
11	764	Test	1	0	1	1349	A2	Buchstaben	1	NaN
11	679	Test	2	2	1	643	A2	Buchstaben	2	r
11	505	Test	1	4	1	540	A1	Zahlen	3	s
11	526	Test	1	1	1	705	A1	Zahlen	4	r
11	602	Test	2	2	1	1042	A2	Buchstaben	5	s
11	495	Test	2	3	1	563	A2	Buchstaben	6	r
11	396	Test	1	4	1	651	A2	Buchstaben	7	r
11	990	Test	1	1	1	880	A1	Zahlen	8	s
11	620	Test	1	1	0	747	A1	Zahlen	9	r
11	598	Test	1	1	1	678	A2	Buchstaben	10	s
11	648	Test	1	1	1	717	A1	Zahlen	11	s
11	585	Test	1	1	1	737	A1	Zahlen	12	r
11	300	Test	2	2	1	936	A2	Buchstaben	13	s
11	369	Test	2	3	1	506	A2	Buchstaben	14	r
11	419	Test	1	4	1	684	A1	Zahlen	15	s
11	354	Test	2	2	1	524	A2	Buchstaben	16	s
11	403	Test	2	3	1	529	A1	Zahlen	17	s
11	368	Test	1	4	1	753	A1	Zahlen	18	r
11	291	Test	1	1	1	615	A2	Buchstaben	19	s
11	606	Test	1	1	1	572	A2	Buchstaben	20	r
11	315	Test	2	2	1	526	A1	Zahlen	21	s
11	367	Test	1	4	1	767	A2	Buchstaben	22	s
11	528	Test	1	1	1	698	A2	Buchstaben	23	r
11	702	Test	2	2	1	633	A2	Buchstaben	24	r
11	477	Test	2	3	1	538	A2	Buchstaben	25	r
11	256	Test	2	3	1	669	A1	Zahlen	26	s
11	326	Test	1	4	1	744	A2	Buchstaben	27	s
11	328	Test	2	2	1	690	A2	Buchstaben	28	r
11	478	Test	1	4	1	498	A2	Buchstaben	29	r
11	381	Test	1	1	1	661	A1	Zahlen	30	s
11	299	Test	2	2	1	510	A1	Zahlen	31	r
11	391	Test	1	4	1	647	A2	Buchstaben	32	s
11	404	Test	1	1	1	794	A2	Buchstaben	33	r
11	263	Test	1	1	1	811	A1	Zahlen	34	s
11	263	Test	2	2	1	548	A1	Zahlen	35	r
11	634	Test	1	4	0	1225	A1	Zahlen	36	r
11	532	Test	1	1	1	502	A2	Buchstaben	37	s
11	518	Test	1	1	0	617	A2	Buchstaben	38	r
11	522	Test	2	2	1	725	A2	Buchstaben	39	r
11	404	Test	2	3	1	666	A1	Zahlen	40	s
11	293	Test	1	4	1	665	A1	Zahlen	41	r
11	454	Test	2	2	1	523	A2	Buchstaben	42	s
11	236	Test	2	3	1	666	A1	Zahlen	43	s
11	315	Test	1	4	1	646	A1	Zahlen	44	r
11	89	Test	1	1	1	1061	A2	Buchstaben	45	s
11	321	Test	2	2	1	563	A2	Buchstaben	46	r
11	378	Test	1	4	1	642	A1	Zahlen	47	s
11	70	Test	1	1	0	890	A1	Zahlen	48	r
11	473	Test	1	1	1	1444	A2	Buchstaben	49	s
11	359	Test	2	2	1	536	A2	Buchstaben	50	r
11	283	Test	1	4	1	587	A1	Zahlen	51	s
11	332	Test	1	1	1	828	A1	Zahlen	52	r
11	306	Test	2	2	1	470	A2	Buchstaben	53	s
11	430	Test	2	3	1	572	A2	Buchstaben	54	r
11	283	Test	1	4	1	647	A1	Zahlen	55	s
11	309	Test	1	1	1	672	A1	Zahlen	56	r
11	293	Test	2	2	1	640	A2	Buchstaben	57	s
11	307	Test	1	4	1	774	A1	Zahlen	58	s
11	270	Test	1	1	1	667	A1	Zahlen	59	r
11	2228	Test	2	2	1	939	A1	Zahlen	60	r
11	150	Test	2	3	1	702	A1	Zahlen	61	r
11	376	Test	1	4	1	600	A2	Buchstaben	62	s
11	527	Test	2	2	1	474	A2	Buchstaben	63	r
11	283	Test	2	3	0	479	A2	Buchstaben	64	r
11	440	Test	1	4	1	839	A1	Zahlen	65	s
11	317	Test	1	1	1	631	A1	Zahlen	66	r
11	355	Test	2	2	1	444	A2	Buchstaben	67	s
11	349	Test	1	4	1	695	A1	Zahlen	68	s
11	511	Test	1	1	1	602	A2	Buchstaben	69	s
11	360	Test	2	2	1	665	A1	Zahlen	70	s
11	348	Test	2	3	1	510	A1	Zahlen	71	r
11	304	Test	2	3	1	699	A1	Zahlen	72	r
11	349	Test	2	3	1	351	A1	Zahlen	73	r
11	288	Test	1	4	1	491	A2	Buchstaben	74	s
11	460	Test	2	2	0	545	A2	Buchstaben	75	r
11	316	Test	2	3	1	503	A2	Buchstaben	76	r
11	993	Test	2	3	1	512	A2	Buchstaben	77	r
11	489	Test	2	3	0	413	A2	Buchstaben	78	r
11	314	Test	1	4	1	541	A1	Zahlen	79	s
11	364	Test	2	2	1	797	A2	Buchstaben	80	s
11	561	Test	2	3	0	738	A2	Buchstaben	81	r
11	467	Test	2	3	1	568	A2	Buchstaben	82	r
11	111	Test	2	3	1	778	A2	Buchstaben	83	r
11	498	Test	1	4	0	628	A1	Zahlen	84	s
11	531	Test	1	1	1	749	A1	Zahlen	85	r
11	832	Test	1	1	1	742	A2	Buchstaben	86	s
11	390	Test	1	1	1	630	A2	Buchstaben	87	r
11	372	Test	1	1	1	868	A1	Zahlen	88	s
11	2298	Test	1	1	1	678	A1	Zahlen	89	r
11	353	Test	2	2	1	628	A2	Buchstaben	90	s
11	592	Test	1	4	1	585	A1	Zahlen	91	s
11	390	Test	1	1	1	1062	A1	Zahlen	92	r
11	378	Test	1	1	1	649	A1	Zahlen	93	r
11	325	Test	2	2	1	600	A2	Buchstaben	94	s
11	284	Test	2	3	1	712	A2	Buchstaben	95	r
11	266	Test	2	3	1	543	A2	Buchstaben	96	r
11	112	Test	1	4	1	699	A1	Zahlen	97	s
11	292	Test	2	2	1	623	A1	Zahlen	98	r
11	300	Test	1	4	1	527	A1	Zahlen	99	r
11	305	Test	1	1	1	708	A2	Buchstaben	100	s
11	613	Test	1	1	0	899	A1	Zahlen	101	s
11	164	Test	2	2	1	692	A2	Buchstaben	102	s
11	327	Test	2	3	1	521	A1	Zahlen	103	s
11	520	Test	1	4	1	627	A1	Zahlen	104	r
11	358	Test	1	1	0	647	A1	Zahlen	105	r
11	1492	Test	1	1	1	649	A1	Zahlen	106	r
11	414	Test	1	1	1	668	A2	Buchstaben	107	s
11	519	Test	2	2	1	690	A2	Buchstaben	108	r
11	313	Test	2	3	1	495	A2	Buchstaben	109	r
11	434	Test	1	4	1	528	A2	Buchstaben	110	r
11	601	Test	1	1	1	865	A1	Zahlen	111	s
11	518	Test	1	1	1	736	A1	Zahlen	112	r
11	417	Test	2	2	1	472	A2	Buchstaben	113	s
11	363	Test	1	4	1	684	A1	Zahlen	114	s
11	741	Test	1	1	1	614	A1	Zahlen	115	r
11	323	Test	2	2	0	408	A1	Zahlen	116	r
11	343	Test	1	4	1	656	A1	Zahlen	117	r
11	398	Test	2	2	1	654	A2	Buchstaben	118	s
11	336	Test	2	3	1	586	A1	Zahlen	119	s
11	338	Test	2	3	1	516	A1	Zahlen	120	r
11	342	Test	2	3	1	663	A1	Zahlen	121	r
11	315	Test	2	3	1	662	A2	Buchstaben	122	s
11	447	Test	2	3	1	772	A2	Buchstaben	123	r
11	369	Test	1	4	1	514	A1	Zahlen	124	s
11	419	Test	1	1	0	714	A1	Zahlen	125	r
11	421	Test	2	2	1	772	A2	Buchstaben	126	s
11	532	Test	1	4	1	734	A1	Zahlen	127	s
11	878	Test	1	1	1	1003	A2	Buchstaben	128	s
11	136	Test	2	2	0	724	A2	Buchstaben	129	r
11	701	Test	1	4	1	728	A2	Buchstaben	130	r
11	816	Test	2	2	1	511	A2	Buchstaben	131	r
11	768	Test	1	4	1	536	A1	Zahlen	132	s
11	458	Test	2	2	1	486	A2	Buchstaben	133	s
11	329	Test	2	3	1	514	A1	Zahlen	134	s
11	347	Test	1	4	1	620	A1	Zahlen	135	r
11	536	Test	1	1	1	610	A2	Buchstaben	136	s
11	551	Test	2	2	1	625	A2	Buchstaben	137	r
11	452	Test	1	4	1	554	A1	Zahlen	138	s
11	530	Test	2	2	1	469	A2	Buchstaben	139	s
11	599	Test	1	4	1	639	A1	Zahlen	140	s
11	746	Test	1	1	1	892	A2	Buchstaben	141	s
11	584	Test	2	2	1	504	A1	Zahlen	142	s
11	363	Test	1	4	1	596	A1	Zahlen	143	r
11	288	Test	2	2	1	548	A2	Buchstaben	144	s
11	795	Test	1	4	1	739	A2	Buchstaben	145	r
11	358	Test	2	2	1	703	A2	Buchstaben	146	r
11	328	Test	1	4	1	658	A1	Zahlen	147	s
11	574	Test	1	1	1	702	A2	Buchstaben	148	s
11	698	Test	1	1	1	630	A2	Buchstaben	149	r
11	65	Test	2	2	1	877	A1	Zahlen	150	s
11	657	Test	2	3	1	526	A1	Zahlen	151	r
11	341	Test	1	4	1	559	A2	Buchstaben	152	s
11	375	Test	2	2	1	462	A2	Buchstaben	153	r
11	298	Test	2	3	1	526	A2	Buchstaben	154	r
11	287	Test	2	3	1	515	A1	Zahlen	155	s
11	484	Test	1	4	1	600	A1	Zahlen	156	r
11	427	Test	2	2	1	697	A2	Buchstaben	157	s
11	371	Test	1	4	1	635	A2	Buchstaben	158	r
11	472	Test	2	2	1	644	A2	Buchstaben	159	r
11	288	Test	2	3	1	572	A2	Buchstaben	160	r
11	308	Test	1	4	1	743	A1	Zahlen	161	s
11	313	Test	2	2	1	595	A1	Zahlen	162	r
11	393	Test	1	4	0	697	A1	Zahlen	163	r
11	389	Test	1	1	1	1085	A1	Zahlen	164	r
11	393	Test	1	1	1	672	A1	Zahlen	165	r
11	555	Test	2	2	1	628	A2	Buchstaben	166	s
11	466	Test	2	3	1	599	A2	Buchstaben	167	r
11	357	Test	2	3	1	512	A2	Buchstaben	168	r
11	383	Test	1	4	1	703	A1	Zahlen	169	s
11	313	Test	2	2	1	772	A1	Zahlen	170	r
11	891	Test	1	4	1	703	A1	Zahlen	171	r
11	112	Test	2	2	0	698	A2	Buchstaben	172	s
11	535	Test	2	3	1	489	A2	Buchstaben	173	r
11	676	Test	1	4	1	1328	A1	Zahlen	174	s
11	416	Test	2	2	1	455	A2	Buchstaben	175	s
11	427	Test	1	4	1	633	A2	Buchstaben	176	r
11	332	Test	2	2	1	558	A1	Zahlen	177	s
11	332	Test	2	3	1	567	A1	Zahlen	178	r
11	312	Test	2	3	1	560	A1	Zahlen	179	r
11	341	Test	1	4	1	1102	A2	Buchstaben	180	s
11	402	Test	1	1	1	576	A2	Buchstaben	181	r
11	294	Test	2	2	1	553	A1	Zahlen	182	s
11	660	Test	1	4	1	662	A2	Buchstaben	183	s
11	601	Test	2	2	1	504	A2	Buchstaben	184	r
11	258	Test	1	4	1	591	A2	Buchstaben	185	r
11	167	Test	1	1	1	808	A2	Buchstaben	186	r
11	318	Test	1	1	1	1025	A1	Zahlen	187	s
11	663	Test	1	1	1	956	A2	Buchstaben	188	s
11	302	Test	1	1	1	563	A2	Buchstaben	189	r
11	303	Test	2	2	1	546	A1	Zahlen	190	s
11	338	Test	1	4	1	949	A1	Zahlen	191	r
11	332	Test	1	1	1	630	A1	Zahlen	192	r
11	315	Test	1	1	1	854	A2	Buchstaben	193	s
11	321	Test	2	2	1	508	A2	Buchstaben	194	r
11	527	Test	1	4	1	817	A1	Zahlen	195	s
11	719	Test	1	1	1	770	A1	Zahlen	196	r
11	555	Test	1	1	1	1157	A2	Buchstaben	197	s
11	574	Test	1	1	1	766	A2	Buchstaben	198	r
11	448	Test	2	2	1	637	A2	Buchstaben	199	r
11	530	Test	1	4	1	988	A1	Zahlen	200	s
11	338	Test	1	1	1	671	A2	Buchstaben	201	s
11	390	Test	2	2	1	406	A1	Zahlen	202	s
11	299	Test	2	3	1	471	A1	Zahlen	203	r
11	440	Test	2	3	1	1526	A2	Buchstaben	204	s
11	481	Test	2	3	1	631	A2	Buchstaben	205	r
11	378	Test	1	4	1	850	A2	Buchstaben	206	r
11	477	Test	1	1	1	627	A2	Buchstaben	207	r
11	432	Test	1	1	1	854	A1	Zahlen	208	s
11	561	Test	1	1	1	842	A1	Zahlen	209	r
11	545	Test	2	2	1	650	A2	Buchstaben	210	s
11	517	Test	1	4	1	552	A2	Buchstaben	211	r
11	801	Test	1	1	1	561	A2	Buchstaben	212	r
11	312	Test	2	2	1	470	A1	Zahlen	213	s
11	292	Test	2	3	1	639	A1	Zahlen	214	r
11	314	Test	2	3	1	437	A2	Buchstaben	215	s
11	451	Test	1	4	1	632	A2	Buchstaben	216	r
11	1083	Test	2	2	1	752	A2	Buchstaben	217	r
11	359	Test	1	4	1	760	A2	Buchstaben	218	r
11	433	Test	1	1	1	679	A1	Zahlen	219	s
11	331	Test	1	1	1	550	A1	Zahlen	220	r
11	293	Test	2	2	0	696	A1	Zahlen	221	r
11	472	Test	2	3	1	588	A1	Zahlen	222	r
11	393	Test	2	3	1	529	A1	Zahlen	223	r
11	272	Test	1	4	1	628	A2	Buchstaben	224	s
11	463	Test	2	2	1	612	A2	Buchstaben	225	r
11	284	Test	1	4	1	777	A2	Buchstaben	226	r
11	535	Test	1	1	1	777	A1	Zahlen	227	s
11	342	Test	2	2	1	511	A1	Zahlen	228	r
11	262	Test	2	3	1	643	A1	Zahlen	229	r
11	336	Test	2	3	1	514	A2	Buchstaben	230	s
11	386	Test	1	4	1	658	A2	Buchstaben	231	r
11	327	Test	2	2	1	568	A2	Buchstaben	232	r
11	401	Test	1	4	1	632	A2	Buchstaben	233	r
11	380	Test	1	1	1	580	A2	Buchstaben	234	r
11	298	Test	1	1	1	637	A2	Buchstaben	235	r
11	524	Test	1	1	1	630	A2	Buchstaben	236	r
11	509	Test	2	2	1	400	A2	Buchstaben	237	r
11	284	Test	1	4	1	696	A2	Buchstaben	238	r
11	297	Test	2	2	1	588	A1	Zahlen	239	s
11	259	Test	2	3	1	463	A1	Zahlen	240	r
11	243	Test	2	3	1	507	A1	Zahlen	241	r
11	278	Test	2	3	1	512	A2	Buchstaben	242	s
11	288	Test	1	4	1	939	A1	Zahlen	243	s
11	356	Test	1	1	1	757	A1	Zahlen	244	r
11	334	Test	2	2	1	600	A1	Zahlen	245	r
11	263	Test	2	3	1	532	A1	Zahlen	246	r
11	300	Test	2	3	1	608	A2	Buchstaben	247	s
11	282	Test	2	3	1	561	A2	Buchstaben	248	r
11	240	Test	1	4	1	589	A2	Buchstaben	249	r
11	299	Test	1	1	1	679	A2	Buchstaben	250	r
11	378	Test	1	1	1	713	A2	Buchstaben	251	r
11	251	Test	2	2	1	608	A1	Zahlen	252	s
11	284	Test	1	4	1	592	A1	Zahlen	253	r
11	351	Test	2	2	1	728	A1	Zahlen	254	r
11	297	Test	1	4	0	485	A1	Zahlen	255	r
11	880	Test	1	1	1	612	A1	Zahlen	256	r
11	312	Test	2	2	1	547	A1	Zahlen	257	r
11	337	Test	1	4	1	491	A1	Zahlen	258	r
11	959	Test	1	1	1	552	A1	Zahlen	259	r
11	409	Test	1	1	1	696	A1	Zahlen	260	r
11	265	Test	1	1	1	702	A2	Buchstaben	261	s
11	418	Test	2	2	1	537	A2	Buchstaben	262	r
11	330	Test	2	3	1	532	A2	Buchstaben	263	r
11	309	Test	2	3	1	520	A1	Zahlen	264	s
11	377	Test	2	3	1	793	A1	Zahlen	265	r
11	599	Test	1	4	0	966	A2	Buchstaben	266	s
11	619	Test	1	1	1	754	A2	Buchstaben	267	r
11	820	Test	2	2	0	640	A2	Buchstaben	268	r
11	528	Test	2	3	1	770	A1	Zahlen	269	s
11	370	Test	2	3	1	602	A1	Zahlen	270	r
11	301	Test	1	4	1	745	A1	Zahlen	271	r
11	313	Test	1	1	1	619	A2	Buchstaben	272	s
11	755	Test	2	2	1	732	A2	Buchstaben	273	r
11	348	Test	1	4	1	661	A2	Buchstaben	274	r
11	305	Test	2	2	1	476	A2	Buchstaben	275	r
11	327	Test	2	3	1	505	A2	Buchstaben	276	r
11	296	Test	2	3	1	651	A1	Zahlen	277	s
11	277	Test	2	3	1	601	A1	Zahlen	278	r
11	301	Test	2	3	1	520	A2	Buchstaben	279	s
11	323	Test	2	3	1	597	A2	Buchstaben	280	r
11	450	Test	2	3	1	520	A2	Buchstaben	281	r
11	328	Test	1	4	1	614	A1	Zahlen	282	s
11	336	Test	1	1	1	931	A2	Buchstaben	283	s
11	522	Test	1	1	1	565	A1	Zahlen	284	s
11	340	Test	2	2	0	518	A2	Buchstaben	285	s
11	401	Test	2	3	1	537	A1	Zahlen	286	s
11	521	Test	1	4	1	876	A1	Zahlen	287	r
11	350	Test	2	2	1	456	A1	Zahlen	288	r
11	1050	Test	2	3	1	554	A1	Zahlen	289	r
11	334	Test	2	3	1	480	A2	Buchstaben	290	s
11	296	Test	2	3	1	476	A2	Buchstaben	291	r
11	708	Test	1	4	1	647	A2	Buchstaben	292	r
11	770	Test	2	2	1	699	A2	Buchstaben	293	r
11	485	Test	2	3	1	858	A1	Zahlen	294	s
11	628	Test	1	4	1	554	A2	Buchstaben	295	s
11	419	Test	1	1	1	835	A2	Buchstaben	296	r
11	600	Test	1	1	1	880	A2	Buchstaben	297	r
11	289	Test	2	2	1	477	A1	Zahlen	298	s
11	303	Test	1	4	1	626	A1	Zahlen	299	r
11	287	Test	2	2	1	691	A1	Zahlen	300	r
11	363	Test	1	4	1	548	A1	Zahlen	301	r
11	1116	Test	2	2	0	503	A2	Buchstaben	302	s
11	513	Test	1	4	1	708	A2	Buchstaben	303	r
11	341	Test	2	2	1	454	A2	Buchstaben	304	r
11	578	Test	2	3	0	554	A2	Buchstaben	305	r
11	309	Test	1	4	1	807	A1	Zahlen	306	s
11	275	Test	2	2	1	463	A1	Zahlen	307	r
11	288	Test	1	4	1	628	A1	Zahlen	308	r
11	483	Test	2	2	1	695	A1	Zahlen	309	r
11	505	Test	1	4	1	580	A1	Zahlen	310	r
11	345	Test	1	1	1	587	A1	Zahlen	311	r
11	426	Test	2	2	1	592	A2	Buchstaben	312	s
11	516	Test	1	4	1	727	A2	Buchstaben	313	r
11	303	Test	1	1	1	795	A1	Zahlen	314	s
11	553	Test	2	2	1	645	A2	Buchstaben	315	s
11	324	Test	2	3	1	606	A2	Buchstaben	316	r
11	515	Test	2	3	1	646	A2	Buchstaben	317	r
11	697	Test	2	3	1	572	A2	Buchstaben	318	r
11	594	Test	2	3	0	738	A1	Zahlen	319	s
11	632	Test	2	3	1	494	A1	Zahlen	320	r
11	297	Test	1	4	1	492	A1	Zahlen	321	r
11	310	Test	2	2	1	801	A2	Buchstaben	322	s
11	253	Test	2	3	1	475	A2	Buchstaben	323	r
11	324	Test	1	4	1	558	A2	Buchstaben	324	r
11	262	Test	1	1	1	539	A2	Buchstaben	325	r
11	388	Test	1	1	1	547	A2	Buchstaben	326	r
11	306	Test	2	2	1	477	A1	Zahlen	327	s
11	319	Test	2	3	1	505	A1	Zahlen	328	r
11	610	Test	1	4	1	617	A1	Zahlen	329	r
11	616	Test	1	1	1	711	A2	Buchstaben	330	s
11	336	Test	1	1	1	827	A1	Zahlen	331	s
11	328	Test	2	2	1	490	A2	Buchstaben	332	s
11	324	Test	2	3	1	517	A2	Buchstaben	333	r
11	348	Test	2	3	1	495	A1	Zahlen	334	s
11	286	Test	2	3	1	450	A1	Zahlen	335	r
11	287	Test	1	4	1	803	A1	Zahlen	336	r
11	336	Test	2	2	1	579	A2	Buchstaben	337	s
11	423	Test	2	3	1	645	A2	Buchstaben	338	r
11	520	Test	1	4	1	643	A1	Zahlen	339	s
11	135	Test	2	2	1	745	A2	Buchstaben	340	s
11	488	Test	1	4	1	589	A2	Buchstaben	341	r
11	514	Test	1	1	1	580	A2	Buchstaben	342	r
11	668	Test	1	1	1	841	A2	Buchstaben	343	r
11	551	Test	2	2	1	537	A2	Buchstaben	344	r
11	652	Test	1	4	1	1144	A1	Zahlen	345	s
11	697	Test	2	2	1	852	A1	Zahlen	346	r
11	346	Test	2	3	1	563	A2	Buchstaben	347	s
11	251	Test	2	3	1	464	A1	Zahlen	348	s
11	272	Test	2	3	1	521	A1	Zahlen	349	r
11	863	Test	2	3	1	524	A1	Zahlen	350	r
11	312	Test	2	3	1	791	A1	Zahlen	351	r
11	332	Test	2	3	1	511	A2	Buchstaben	352	s
12		Practice			1	556	A1			
12		Practice			1	461	A1			
12		Practice			0	377	A1			
12		Practice			1	420	A1			
12		Practice			1	442	A1			
12		Practice			1	433	A1			
12		Practice			1	390	A1			
12		Practice			1	422	A1			
12		Practice			1	476	A1			
12		Practice			1	409	A1			
12		Practice			1	439	A1			
12		Practice			1	429	A1			
12		Practice			1	611	A1			
12		Practice			1	408	A1			
12		Practice			1	631	A1			
12		Practice			1	397	A1			
12		Practice			1	625	A2			
12		Practice			1	461	A2			
12		Practice			1	392	A2			
12		Practice			1	645	A2			
12		Practice			1	458	A2			
12		Practice			0	400	A2			
12		Practice			1	810	A2			
12		Practice			1	970	A2			
12		Practice			1	475	A2			
12		Practice			1	584	A2			
12		Practice			1	488	A2			
12		Practice			1	452	A2			
12		Practice			1	483	A2			
12		Practice			1	407	A2			
12		Practice			1	493	A2			
12		Practice			1	414	A2			
12	565	Practice			1	815	A1	Zahlen		NaN
12	414	Practice			1	500	A2	Buchstaben		s
12	375	Practice			1	567	A2	Buchstaben		r
12	215	Practice			1	526	A1	Zahlen		s
12	287	Practice			1	515	A1	Zahlen		r
12	284	Practice			1	488	A1	Zahlen		r
12	225	Practice			1	464	A2	Buchstaben		s
12	526	Practice			1	560	A2	Buchstaben		r
12	502	Practice			0	506	A2	Buchstaben		r
12	587	Practice			1	517	A2	Buchstaben		r
12	648	Practice			1	494	A2	Buchstaben		r
12	386	Practice			1	506	A1	Zahlen		s
12	491	Practice			1	495	A2	Buchstaben		s
12	386	Practice			1	489	A2	Buchstaben		r
12	458	Practice			1	455	A2	Buchstaben		r
12	203	Practice			1	458	A1	Zahlen		s
12	468	Baseline			1	545	A2	Buchstaben	1	NaN
12	296	Baseline			1	491	A1	Zahlen	2	s
12	261	Baseline			1	442	A1	Zahlen	3	r
12	303	Baseline			1	490	A2	Buchstaben	4	s
12	382	Baseline			1	470	A2	Buchstaben	5	r
12	240	Baseline			1	533	A2	Buchstaben	6	r
12	216	Baseline			1	495	A2	Buchstaben	7	r
12	273	Baseline			1	597	A1	Zahlen	8	s
12	253	Baseline			1	529	A1	Zahlen	9	r
12	261	Baseline			1	458	A2	Buchstaben	10	s
12	351	Baseline			1	496	A2	Buchstaben	11	r
12	339	Baseline			1	563	A1	Zahlen	12	s
12	443	Baseline			1	471	A1	Zahlen	13	r
12	219	Baseline			1	545	A2	Buchstaben	14	s
12	289	Baseline			1	461	A1	Zahlen	15	s
12	259	Baseline			1	560	A1	Zahlen	16	r
12	263	Baseline			1	492	A2	Buchstaben	17	s
12	484	Baseline			1	504	A2	Buchstaben	18	r
12	299	Baseline			1	583	A2	Buchstaben	19	r
12	302	Baseline			1	409	A2	Buchstaben	20	r
12	318	Baseline			1	473	A2	Buchstaben	21	r
12	301	Baseline			1	432	A1	Zahlen	22	s
12	342	Baseline			1	400	A1	Zahlen	23	r
12	341	Baseline			1	486	A1	Zahlen	24	r
12	226	Baseline			1	528	A2	Buchstaben	25	s
12	266	Baseline			1	583	A1	Zahlen	26	s
12	270	Baseline			1	571	A2	Buchstaben	27	s
12	258	Baseline			1	501	A2	Buchstaben	28	r
12	402	Baseline			1	537	A2	Buchstaben	29	r
12	259	Baseline			1	511	A1	Zahlen	30	s
12	304	Baseline			1	499	A1	Zahlen	31	r
12	231	Baseline			1	515	A2	Buchstaben	32	s
12	356	Baseline			1	431	A2	Buchstaben	33	r
12	339	Baseline			1	501	A1	Zahlen	34	s
12	336	Baseline			1	481	A1	Zahlen	35	r
12	293	Baseline			1	529	A2	Buchstaben	36	s
12	410	Baseline			1	502	A2	Buchstaben	37	r
12	193	Baseline			1	552	A1	Zahlen	38	s
12	281	Baseline			1	567	A1	Zahlen	39	r
12	751	Baseline			1	505	A2	Buchstaben	40	s
12	650	Baseline			1	768	A2	Buchstaben	41	r
12	248	Baseline			1	454	A1	Zahlen	42	s
12	241	Baseline			1	558	A1	Zahlen	43	r
12	312	Baseline			1	499	A1	Zahlen	44	r
12	270	Baseline			1	538	A2	Buchstaben	45	s
12	298	Baseline			1	529	A2	Buchstaben	46	r
12	272	Baseline			1	476	A2	Buchstaben	47	r
12	270	Baseline			1	562	A1	Zahlen	48	s
12	305	Baseline			1	556	A2	Buchstaben	49	s
12	491	Baseline			1	582	A1	Zahlen	50	s
12	239	Baseline			1	477	A2	Buchstaben	51	s
12	351	Baseline			1	617	A2	Buchstaben	52	r
12	208	Baseline			1	478	A1	Zahlen	53	s
12	416	Baseline			1	543	A2	Buchstaben	54	s
12	439	Baseline			0	429	A1	Zahlen	55	s
12	318	Baseline			1	585	A1	Zahlen	56	r
12	283	Baseline			1	488	A2	Buchstaben	57	s
12	463	Baseline			1	484	A2	Buchstaben	58	r
12	313	Baseline			1	563	A1	Zahlen	59	s
12	643	Baseline			1	537	A2	Buchstaben	60	s
12	481	Baseline			0	428	A2	Buchstaben	61	r
12	589	Baseline			1	628	A2	Buchstaben	62	r
12	440	Baseline			1	573	A1	Zahlen	63	s
12	245	Baseline			1	538	A2	Buchstaben	64	s
12	219	Baseline			1	521	A1	Zahlen	65	s
12	243	Baseline			1	527	A1	Zahlen	66	r
12	320	Baseline			1	563	A2	Buchstaben	67	s
12	1877	Baseline			1	570	A2	Buchstaben	68	r
12	537	Baseline			1	484	A2	Buchstaben	69	r
12	208	Baseline			1	495	A1	Zahlen	70	s
12	234	Baseline			1	543	A2	Buchstaben	71	s
12	199	Baseline			1	541	A1	Zahlen	72	s
12	261	Baseline			1	498	A2	Buchstaben	73	s
12	283	Baseline			1	511	A2	Buchstaben	74	r
12	275	Baseline			1	711	A2	Buchstaben	75	r
12	264	Baseline			1	773	A1	Zahlen	76	s
12	270	Baseline			1	594	A1	Zahlen	77	r
12	441	Baseline			1	646	A2	Buchstaben	78	s
12	251	Baseline			1	545	A2	Buchstaben	79	r
12	283	Baseline			1	647	A1	Zahlen	80	s
12	281	Baseline			1	573	A2	Buchstaben	81	s
12	295	Baseline			1	508	A2	Buchstaben	82	r
12	469	Baseline			1	578	A2	Buchstaben	83	r
12	607	Baseline			1	502	A2	Buchstaben	84	r
12	242	Baseline			1	479	A1	Zahlen	85	s
12	538	Baseline			1	531	A2	Buchstaben	86	s
12	220	Baseline			1	587	A1	Zahlen	87	s
12	188	Baseline			1	508	A1	Zahlen	88	r
12	237	Baseline			1	548	A2	Buchstaben	89	s
12	679	Baseline			1	499	A2	Buchstaben	90	r
12	574	Baseline			1	750	A2	Buchstaben	91	r
12	270	Baseline			1	467	A2	Buchstaben	92	r
12	241	Baseline			1	502	A2	Buchstaben	93	r
12	450	Baseline			1	495	A2	Buchstaben	94	r
12	356	Baseline			1	573	A2	Buchstaben	95	r
12	455	Baseline			1	524	A1	Zahlen	96	s
12	318	Baseline			1	568	A1	Zahlen	97	r
12	489	Baseline			1	597	A2	Buchstaben	98	s
12	299	Baseline			1	726	A2	Buchstaben	99	r
12	255	Baseline			1	604	A2	Buchstaben	100	r
12	226	Baseline			1	464	A1	Zahlen	101	s
12	227	Baseline			1	545	A1	Zahlen	102	r
12	217	Baseline			1	616	A1	Zahlen	103	r
12	261	Baseline			1	658	A1	Zahlen	104	r
12	256	Baseline			1	590	A2	Buchstaben	105	s
12	323	Baseline			1	534	A2	Buchstaben	106	r
12	297	Baseline			1	476	A2	Buchstaben	107	r
12	263	Baseline			1	564	A1	Zahlen	108	s
12	115	Baseline			1	597	A1	Zahlen	109	r
12	283	Baseline			1	639	A2	Buchstaben	110	s
12	317	Baseline			1	600	A2	Buchstaben	111	r
12	45	Baseline			0	611	A2	Buchstaben	112	r
12	321	Baseline			1	660	A1	Zahlen	113	s
12	241	Baseline			0	623	A1	Zahlen	114	r
12	518	Baseline			1	545	A2	Buchstaben	115	s
12	271	Baseline			1	564	A1	Zahlen	116	s
12	307	Baseline			1	558	A1	Zahlen	117	r
12	279	Baseline			1	683	A1	Zahlen	118	r
12	510	Baseline			1	641	A1	Zahlen	119	r
12	224	Baseline			1	478	A2	Buchstaben	120	s
12	619	Baseline			1	826	A2	Buchstaben	121	r
12	241	Baseline			1	487	A1	Zahlen	122	s
12	483	Baseline			1	479	A1	Zahlen	123	r
12	242	Baseline			1	527	A2	Buchstaben	124	s
12	294	Baseline			1	738	A2	Buchstaben	125	r
12	284	Baseline			1	504	A1	Zahlen	126	s
12	459	Baseline			1	688	A2	Buchstaben	127	s
12	243	Baseline			1	616	A1	Zahlen	128	s
12	607	Baseline			1	510	A2	Buchstaben	129	s
12	344	Baseline			1	529	A2	Buchstaben	130	r
12	618	Baseline			1	681	A2	Buchstaben	131	r
12	277	Baseline			1	633	A1	Zahlen	132	s
12	231	Baseline			1	532	A2	Buchstaben	133	s
12	227	Baseline			1	570	A2	Buchstaben	134	r
12	219	Baseline			1	626	A2	Buchstaben	135	r
12	239	Baseline			1	589	A1	Zahlen	136	s
12	708	Baseline			1	550	A2	Buchstaben	137	s
12	317	Baseline			1	688	A1	Zahlen	138	s
12	316	Baseline			1	527	A2	Buchstaben	139	s
12	422	Baseline			1	989	A2	Buchstaben	140	r
12	333	Baseline			1	527	A1	Zahlen	141	s
12	356	Baseline			1	610	A2	Buchstaben	142	s
12	374	Baseline			1	606	A1	Zahlen	143	s
12	406	Baseline			1	716	A2	Buchstaben	144	s
12	896	Baseline			1	643	A2	Buchstaben	145	r
12	288	Baseline			1	548	A1	Zahlen	146	s
12	349	Baseline			1	575	A2	Buchstaben	147	s
12	384	Baseline			1	608	A1	Zahlen	148	s
12	263	Baseline			1	580	A2	Buchstaben	149	s
12	324	Baseline			1	550	A2	Buchstaben	150	r
12	285	Baseline			1	634	A1	Zahlen	151	s
12	230	Baseline			1	484	A1	Zahlen	152	r
12	241	Baseline			1	463	A2	Buchstaben	153	s
12	332	Baseline			1	422	A2	Buchstaben	154	r
12	571	Baseline			1	556	A2	Buchstaben	155	r
12	567	Baseline			1	502	A1	Zahlen	156	s
12	353	Baseline			1	626	A1	Zahlen	157	r
12	577	Baseline			1	657	A1	Zahlen	158	r
12	254	Baseline			1	1068	A1	Zahlen	159	r
12	320	Baseline			1	498	A2	Buchstaben	160	s
12	165	Baseline			1	470	A2	Buchstaben	161	r
12	384	Baseline			1	584	A2	Buchstaben	162	r
12	525	Baseline			1	519	A2	Buchstaben	163	r
12	691	Baseline			1	503	A2	Buchstaben	164	r
12	426	Baseline			1	481	A1	Zahlen	165	s
12	326	Baseline			1	616	A1	Zahlen	166	r
12	255	Baseline			0	452	A1	Zahlen	167	r
12	384	Baseline			1	560	A1	Zahlen	168	r
12	541	Baseline			1	560	A2	Buchstaben	169	s
12	254	Baseline			1	475	A1	Zahlen	170	s
12	253	Baseline			1	610	A2	Buchstaben	171	s
12	335	Baseline			1	545	A2	Buchstaben	172	r
12	323	Baseline			1	549	A2	Buchstaben	173	r
12	749	Baseline			1	505	A2	Buchstaben	174	r
12	345	Baseline			1	619	A1	Zahlen	175	s
12	265	Baseline			1	542	A1	Zahlen	176	r
12										
12	559	Test	1	0	1	527	A1	Zahlen	1	NaN
12	1055	Test	2	2	1	564	A2	Buchstaben	2	s
12	499	Test	1	4	1	449	A2	Buchstaben	3	r
12	449	Test	1	1	0	326	A2	Buchstaben	4	r
12	315	Test	2	2	1	526	A1	Zahlen	5	s
12	519	Test	2	3	1	362	A1	Zahlen	6	r
12	319	Test	1	4	1	435	A1	Zahlen	7	r
12	320	Test	1	1	1	435	A2	Buchstaben	8	s
12	562	Test	1	1	0	291	A2	Buchstaben	9	r
12	358	Test	1	1	1	351	A2	Buchstaben	10	r
12	325	Test	1	1	0	351	A1	Zahlen	11	s
12	352	Test	1	1	1	465	A1	Zahlen	12	r
12	404	Test	2	2	1	371	A2	Buchstaben	13	s
12	265	Test	2	3	1	406	A2	Buchstaben	14	r
12	460	Test	1	4	1	448	A2	Buchstaben	15	r
12	382	Test	2	2	1	470	A2	Buchstaben	16	r
12	251	Test	2	3	1	512	A1	Zahlen	17	s
12	232	Test	1	4	1	414	A1	Zahlen	18	r
12	307	Test	1	1	1	389	A2	Buchstaben	19	s
12	322	Test	1	1	1	340	A2	Buchstaben	20	r
12	395	Test	2	2	1	426	A2	Buchstaben	21	r
12	280	Test	1	4	0	372	A1	Zahlen	22	s
12	293	Test	1	1	1	576	A1	Zahlen	23	r
12	389	Test	2	2	0	509	A1	Zahlen	24	r
12	282	Test	2	3	1	520	A1	Zahlen	25	r
12	302	Test	2	3	1	437	A1	Zahlen	26	r
12	314	Test	1	4	1	360	A1	Zahlen	27	r
12	365	Test	2	2	1	438	A2	Buchstaben	28	s
12	369	Test	1	4	1	441	A2	Buchstaben	29	r
12	331	Test	1	1	1	314	A2	Buchstaben	30	r
12	270	Test	2	2	0	376	A1	Zahlen	31	s
12	405	Test	1	4	1	468	A1	Zahlen	32	r
12	303	Test	1	1	0	371	A1	Zahlen	33	r
12	269	Test	1	1	1	473	A1	Zahlen	34	r
12	437	Test	2	2	1	563	A2	Buchstaben	35	s
12	346	Test	1	4	1	380	A1	Zahlen	36	s
12	290	Test	1	1	1	398	A2	Buchstaben	37	s
12	462	Test	1	1	1	368	A2	Buchstaben	38	r
12	374	Test	2	2	0	366	A1	Zahlen	39	s
12	311	Test	2	3	1	434	A1	Zahlen	40	r
12	526	Test	1	4	1	471	A2	Buchstaben	41	s
12	307	Test	2	2	1	502	A1	Zahlen	42	s
12	407	Test	2	3	1	377	A1	Zahlen	43	r
12	509	Test	1	4	1	520	A2	Buchstaben	44	s
12	289	Test	1	1	1	531	A1	Zahlen	45	s
12	411	Test	2	2	1	482	A1	Zahlen	46	r
12	498	Test	1	4	1	461	A2	Buchstaben	47	s
12	402	Test	1	1	1	535	A1	Zahlen	48	s
12	617	Test	1	1	0	424	A1	Zahlen	49	r
12	458	Test	2	2	1	519	A1	Zahlen	50	r
12	361	Test	1	4	1	498	A1	Zahlen	51	r
12	509	Test	1	1	1	472	A1	Zahlen	52	r
12	43	Test	2	2	1	617	A1	Zahlen	53	r
12	435	Test	2	3	1	405	A1	Zahlen	54	r
12	609	Test	1	4	1	576	A1	Zahlen	55	r
12	458	Test	1	1	0	421	A2	Buchstaben	56	s
12	433	Test	2	2	1	367	A2	Buchstaben	57	r
12	564	Test	1	4	1	437	A2	Buchstaben	58	r
12	473	Test	1	1	0	397	A2	Buchstaben	59	r
12	155	Test	2	2	0	452	A2	Buchstaben	60	r
12	436	Test	2	3	1	514	A2	Buchstaben	61	r
12	916	Test	1	4	1	536	A2	Buchstaben	62	r
12	398	Test	2	2	1	517	A1	Zahlen	63	s
12	840	Test	2	3	1	405	A1	Zahlen	64	r
12	364	Test	1	4	1	461	A2	Buchstaben	65	s
12	287	Test	1	1	1	499	A1	Zahlen	66	s
12	367	Test	2	2	0	479	A1	Zahlen	67	r
12	544	Test	1	4	1	562	A1	Zahlen	68	r
12	401	Test	1	1	1	521	A1	Zahlen	69	r
12	356	Test	2	2	1	453	A2	Buchstaben	70	s
12	370	Test	2	3	1	426	A2	Buchstaben	71	r
12	352	Test	2	3	1	476	A2	Buchstaben	72	r
12	310	Test	2	3	1	432	A1	Zahlen	73	s
12	363	Test	1	4	0	475	A1	Zahlen	74	r
12	1910	Test	2	2	1	545	A2	Buchstaben	75	s
12	162	Test	2	3	1	610	A2	Buchstaben	76	r
12	465	Test	2	3	1	398	A2	Buchstaben	77	r
12	378	Test	2	3	1	506	A1	Zahlen	78	s
12	341	Test	1	4	1	431	A2	Buchstaben	79	s
12	571	Test	2	2	1	428	A2	Buchstaben	80	r
12	470	Test	2	3	1	474	A2	Buchstaben	81	r
12	334	Test	2	3	1	472	A1	Zahlen	82	s
12	445	Test	2	3	1	362	A1	Zahlen	83	r
12	738	Test	1	4	1	532	A2	Buchstaben	84	s
12	405	Test	1	1	1	428	A2	Buchstaben	85	r
12	346	Test	1	1	0	411	A1	Zahlen	86	s
12	373	Test	1	1	1	653	A1	Zahlen	87	r
12	657	Test	1	1	1	565	A2	Buchstaben	88	s
12	381	Test	1	1	1	597	A1	Zahlen	89	s
12	483	Test	2	2	1	391	A1	Zahlen	90	r
12	398	Test	1	4	1	518	A2	Buchstaben	91	s
12	344	Test	1	1	0	425	A1	Zahlen	92	s
12	384	Test	1	1	1	400	A1	Zahlen	93	r
12	341	Test	2	2	1	591	A1	Zahlen	94	r
12	723	Test	2	3	1	437	A1	Zahlen	95	r
12	394	Test	2	3	1	370	A1	Zahlen	96	r
12	112	Test	1	4	1	611	A2	Buchstaben	97	s
12	465	Test	2	2	1	478	A2	Buchstaben	98	r
12	1289	Test	1	4	1	405	A2	Buchstaben	99	r
12	390	Test	1	1	1	492	A1	Zahlen	100	s
12	711	Test	1	1	0	474	A1	Zahlen	101	r
12	836	Test	2	2	1	418	A2	Buchstaben	102	s
12	902	Test	2	3	1	498	A2	Buchstaben	103	r
12	493	Test	1	4	0	392	A1	Zahlen	104	s
12	1615	Test	1	1	1	374	A1	Zahlen	105	r
12	358	Test	1	1	1	486	A1	Zahlen	106	r
12	410	Test	1	1	0	420	A1	Zahlen	107	r
12	911	Test	2	2	1	442	A2	Buchstaben	108	s
12	925	Test	2	3	1	416	A2	Buchstaben	109	r
12	405	Test	1	4	1	462	A1	Zahlen	110	s
12	667	Test	1	1	1	496	A2	Buchstaben	111	s
12	505	Test	1	1	1	523	A1	Zahlen	112	s
12	755	Test	2	2	1	436	A2	Buchstaben	113	s
12	974	Test	1	4	1	566	A2	Buchstaben	114	r
12	380	Test	1	1	1	596	A1	Zahlen	115	s
12	747	Test	2	2	1	460	A1	Zahlen	116	r
12	623	Test	1	4	1	533	A2	Buchstaben	117	s
12	446	Test	2	2	1	451	A2	Buchstaben	118	r
12	605	Test	2	3	1	436	A2	Buchstaben	119	r
12	422	Test	2	3	1	500	A1	Zahlen	120	s
12	798	Test	2	3	1	564	A1	Zahlen	121	r
12	458	Test	2	3	1	487	A1	Zahlen	122	r
12	480	Test	2	3	1	517	A1	Zahlen	123	r
12	711	Test	1	4	1	426	A2	Buchstaben	124	s
12	639	Test	1	1	1	599	A2	Buchstaben	125	r
12	1146	Test	2	2	1	516	A1	Zahlen	126	s
12	950	Test	1	4	1	439	A2	Buchstaben	127	s
12	1131	Test	1	1	1	493	A2	Buchstaben	128	r
12	438	Test	2	2	1	620	A1	Zahlen	129	s
12	47	Test	1	4	1	716	A1	Zahlen	130	r
12	519	Test	2	2	1	432	A1	Zahlen	131	r
12	443	Test	1	4	1	441	A2	Buchstaben	132	s
12	646	Test	2	2	1	340	A1	Zahlen	133	s
12	451	Test	2	3	0	377	A1	Zahlen	134	r
12	426	Test	1	4	1	472	A2	Buchstaben	135	s
12	364	Test	1	1	1	525	A1	Zahlen	136	s
12	566	Test	2	2	1	407	A1	Zahlen	137	r
12	412	Test	1	4	1	508	A2	Buchstaben	138	s
12	437	Test	2	2	1	525	A1	Zahlen	139	s
12	714	Test	1	4	1	517	A2	Buchstaben	140	s
12	1055	Test	1	1	1	420	A2	Buchstaben	141	r
12	763	Test	2	2	1	404	A1	Zahlen	142	s
12	319	Test	1	4	1	498	A2	Buchstaben	143	s
12	690	Test	2	2	1	414	A1	Zahlen	144	s
12	547	Test	1	4	1	525	A2	Buchstaben	145	s
12	885	Test	2	2	0	377	A1	Zahlen	146	s
12	2620	Test	1	4	1	547	A2	Buchstaben	147	s
12	668	Test	1	1	1	536	A2	Buchstaben	148	r
12	511	Test	1	1	1	546	A2	Buchstaben	149	r
12	1187	Test	2	2	1	481	A1	Zahlen	150	s
12	436	Test	2	3	1	562	A1	Zahlen	151	r
12	1011	Test	1	4	0	498	A1	Zahlen	152	r
12	478	Test	2	2	1	442	A1	Zahlen	153	r
12	494	Test	2	3	1	625	A2	Buchstaben	154	s
12	390	Test	2	3	1	373	A2	Buchstaben	155	r
12	580	Test	1	4	1	564	A1	Zahlen	156	s
12	643	Test	2	2	1	505	A1	Zahlen	157	r
12	345	Test	1	4	1	506	A2	Buchstaben	158	s
12	518	Test	2	2	1	513	A2	Buchstaben	159	r
12	529	Test	2	3	1	499	A2	Buchstaben	160	r
12	653	Test	1	4	1	443	A2	Buchstaben	161	r
12	479	Test	2	2	1	394	A2	Buchstaben	162	r
12	742	Test	1	4	1	488	A2	Buchstaben	163	r
12	362	Test	1	1	1	499	A1	Zahlen	164	s
12	363	Test	1	1	1	428	A1	Zahlen	165	r
12	474	Test	2	2	1	542	A2	Buchstaben	166	s
12	567	Test	2	3	0	439	A2	Buchstaben	167	r
12	421	Test	2	3	1	436	A2	Buchstaben	168	r
12	393	Test	1	4	1	497	A1	Zahlen	169	s
12	363	Test	2	2	1	420	A1	Zahlen	170	r
12	335	Test	1	4	0	505	A1	Zahlen	171	r
12	1053	Test	2	2	1	410	A1	Zahlen	172	r
12	1318	Test	2	3	1	417	A2	Buchstaben	173	s
12	1423	Test	1	4	1	485	A1	Zahlen	174	s
12	856	Test	2	2	1	365	A1	Zahlen	175	r
12	667	Test	1	4	1	416	A2	Buchstaben	176	s
12	684	Test	2	2	1	432	A2	Buchstaben	177	r
12	548	Test	2	3	1	405	A2	Buchstaben	178	r
12	572	Test	2	3	1	380	A1	Zahlen	179	s
12	1417	Test	1	4	1	432	A1	Zahlen	180	r
12	571	Test	1	1	0	444	A1	Zahlen	181	r
12	573	Test	2	2	1	445	A1	Zahlen	182	r
12	1381	Test	1	4	1	432	A1	Zahlen	183	r
12	1395	Test	2	2	1	395	A1	Zahlen	184	r
12	359	Test	1	4	1	584	A2	Buchstaben	185	s
12	318	Test	1	1	1	441	A2	Buchstaben	186	r
12	309	Test	1	1	1	591	A2	Buchstaben	187	r
12	293	Test	1	1	1	528	A2	Buchstaben	188	r
12	369	Test	1	1	1	498	A2	Buchstaben	189	r
12	717	Test	2	2	1	440	A2	Buchstaben	190	r
12	700	Test	1	4	1	432	A1	Zahlen	191	s
12	637	Test	1	1	1	491	A1	Zahlen	192	r
12	749	Test	1	1	1	406	A2	Buchstaben	193	s
12	715	Test	2	2	1	405	A1	Zahlen	194	s
12	875	Test	1	4	1	521	A2	Buchstaben	195	s
12	760	Test	1	1	1	361	A1	Zahlen	196	s
12	848	Test	1	1	0	486	A2	Buchstaben	197	s
12	1104	Test	1	1	1	475	A2	Buchstaben	198	r
12	936	Test	2	2	1	442	A1	Zahlen	199	s
12	742	Test	1	4	1	448	A2	Buchstaben	200	s
12	749	Test	1	1	1	455	A2	Buchstaben	201	r
12	772	Test	2	2	1	436	A1	Zahlen	202	s
12	1256	Test	2	3	1	509	A1	Zahlen	203	r
12	846	Test	2	3	1	493	A2	Buchstaben	204	s
12	558	Test	2	3	1	391	A2	Buchstaben	205	r
12	1949	Test	1	4	1	431	A1	Zahlen	206	s
12	563	Test	1	1	0	428	A1	Zahlen	207	r
12	396	Test	1	1	0	484	A1	Zahlen	208	r
12	498	Test	1	1	1	549	A1	Zahlen	209	r
12	1917	Test	2	2	1	456	A2	Buchstaben	210	s
12	506	Test	1	4	1	429	A1	Zahlen	211	s
12	1308	Test	1	1	1	463	A2	Buchstaben	212	s
12	730	Test	2	2	1	525	A2	Buchstaben	213	r
12	342	Test	2	3	1	368	A2	Buchstaben	214	r
12	352	Test	2	3	1	490	A2	Buchstaben	215	r
12	363	Test	1	4	1	540	A2	Buchstaben	216	r
12	358	Test	2	2	0	399	A1	Zahlen	217	s
12	1620	Test	1	4	1	523	A2	Buchstaben	218	s
12	414	Test	1	1	1	469	A1	Zahlen	219	s
12	473	Test	1	1	1	397	A2	Buchstaben	220	s
12	445	Test	2	2	1	426	A2	Buchstaben	221	r
12	318	Test	2	3	1	393	A2	Buchstaben	222	r
12	328	Test	2	3	1	466	A1	Zahlen	223	s
12	364	Test	1	4	1	525	A1	Zahlen	224	r
12	348	Test	2	2	1	485	A1	Zahlen	225	r
12	320	Test	1	4	1	419	A2	Buchstaben	226	s
12	361	Test	1	1	1	561	A2	Buchstaben	227	r
12	339	Test	2	2	1	476	A1	Zahlen	228	s
12	425	Test	2	3	0	415	A1	Zahlen	229	r
12	340	Test	2	3	0	461	A1	Zahlen	230	r
12	1411	Test	1	4	1	514	A2	Buchstaben	231	s
12	491	Test	2	2	1	439	A1	Zahlen	232	s
12	450	Test	1	4	1	568	A1	Zahlen	233	r
12	449	Test	1	1	1	557	A2	Buchstaben	234	s
12	560	Test	1	1	1	577	A1	Zahlen	235	s
12	488	Test	1	1	1	492	A2	Buchstaben	236	s
12	565	Test	2	2	1	535	A2	Buchstaben	237	r
12	463	Test	1	4	1	468	A2	Buchstaben	238	r
12	3071	Test	2	2	1	388	A2	Buchstaben	239	r
12	505	Test	2	3	1	484	A1	Zahlen	240	s
12	375	Test	2	3	1	415	A1	Zahlen	241	r
12	379	Test	2	3	1	443	A2	Buchstaben	242	s
12	413	Test	1	4	1	492	A2	Buchstaben	243	r
12	302	Test	1	1	1	514	A1	Zahlen	244	s
12	373	Test	2	2	1	414	A2	Buchstaben	245	s
12	435	Test	2	3	1	433	A2	Buchstaben	246	r
12	677	Test	2	3	1	489	A1	Zahlen	247	s
12	394	Test	2	3	1	481	A2	Buchstaben	248	s
12	498	Test	1	4	1	469	A2	Buchstaben	249	r
12	289	Test	1	1	1	605	A1	Zahlen	250	s
12	356	Test	1	1	1	541	A1	Zahlen	251	r
12	370	Test	2	2	1	475	A2	Buchstaben	252	s
12	300	Test	1	4	1	511	A2	Buchstaben	253	r
12	761	Test	2	2	1	434	A1	Zahlen	254	s
12	407	Test	1	4	1	502	A2	Buchstaben	255	s
12	319	Test	1	1	0	674	A2	Buchstaben	256	r
12	456	Test	2	2	1	492	A2	Buchstaben	257	r
12	544	Test	1	4	1	457	A2	Buchstaben	258	r
12	533	Test	1	1	1	775	A2	Buchstaben	259	r
12	764	Test	1	1	1	604	A2	Buchstaben	260	r
12	378	Test	1	1	1	498	A1	Zahlen	261	s
12	1623	Test	2	2	1	414	A2	Buchstaben	262	s
12	506	Test	2	3	1	421	A2	Buchstaben	263	r
12	753	Test	2	3	0	426	A2	Buchstaben	264	r
12	815	Test	2	3	1	438	A1	Zahlen	265	s
12	668	Test	1	4	1	537	A2	Buchstaben	266	s
12	456	Test	1	1	1	469	A1	Zahlen	267	s
12	680	Test	2	2	1	484	A2	Buchstaben	268	s
12	710	Test	2	3	1	481	A2	Buchstaben	269	r
12	809	Test	2	3	1	456	A1	Zahlen	270	s
12	722	Test	1	4	1	476	A2	Buchstaben	271	s
12	1095	Test	1	1	1	563	A1	Zahlen	272	s
12	792	Test	2	2	1	457	A2	Buchstaben	273	s
12	908	Test	1	4	1	647	A2	Buchstaben	274	r
12	828	Test	2	2	1	482	A2	Buchstaben	275	r
12	626	Test	2	3	1	624	A1	Zahlen	276	s
12	588	Test	2	3	1	564	A2	Buchstaben	277	s
12	409	Test	2	3	1	472	A2	Buchstaben	278	r
12	483	Test	2	3	1	464	A2	Buchstaben	279	r
12	408	Test	2	3	1	439	A2	Buchstaben	280	r
12	1220	Test	2	3	1	515	A2	Buchstaben	281	r
12	350	Test	1	4	1	479	A1	Zahlen	282	s
12	322	Test	1	1	1	492	A2	Buchstaben	283	s
12	487	Test	1	1	1	435	A2	Buchstaben	284	r
12	399	Test	2	2	1	576	A1	Zahlen	285	s
12	317	Test	2	3	1	480	A1	Zahlen	286	r
12	330	Test	1	4	0	661	A2	Buchstaben	287	s
12	425	Test	2	2	1	423	A2	Buchstaben	288	r
12	644	Test	2	3	1	457	A2	Buchstaben	289	r
12	414	Test	2	3	1	452	A2	Buchstaben	290	r
12	511	Test	2	3	1	562	A2	Buchstaben	291	r
12	361	Test	1	4	1	481	A1	Zahlen	292	s
12	718	Test	2	2	1	376	A1	Zahlen	293	r
12	413	Test	2	3	1	396	A1	Zahlen	294	r
12	352	Test	1	4	1	586	A2	Buchstaben	295	s
12	527	Test	1	1	1	593	A1	Zahlen	296	s
12	546	Test	1	1	0	379	A2	Buchstaben	297	s
12	480	Test	2	2	1	373	A2	Buchstaben	298	r
12	658	Test	1	4	1	423	A2	Buchstaben	299	r
12	597	Test	2	2	1	492	A2	Buchstaben	300	r
12	351	Test	1	4	1	479	A2	Buchstaben	301	r
12	362	Test	2	2	1	459	A1	Zahlen	302	s
12	568	Test	1	4	1	525	A1	Zahlen	303	r
12	560	Test	2	2	1	521	A1	Zahlen	304	r
12	616	Test	2	3	1	543	A2	Buchstaben	305	s
12	384	Test	1	4	0	441	A2	Buchstaben	306	r
12	612	Test	2	2	1	451	A2	Buchstaben	307	r
12	462	Test	1	4	1	515	A1	Zahlen	308	s
12	412	Test	2	2	1	410	A2	Buchstaben	309	s
12	574	Test	1	4	1	495	A2	Buchstaben	310	r
12	490	Test	1	1	1	573	A2	Buchstaben	311	r
12	787	Test	2	2	1	434	A2	Buchstaben	312	r
12	695	Test	1	4	0	506	A1	Zahlen	313	s
12	1014	Test	1	1	1	629	A2	Buchstaben	314	s
12	851	Test	2	2	1	383	A1	Zahlen	315	s
12	543	Test	2	3	1	457	A1	Zahlen	316	r
12	693	Test	2	3	1	465	A1	Zahlen	317	r
12	413	Test	2	3	1	467	A1	Zahlen	318	r
12	359	Test	2	3	1	480	A2	Buchstaben	319	s
12	441	Test	2	3	1	454	A2	Buchstaben	320	r
12	668	Test	1	4	1	447	A2	Buchstaben	321	r
12	403	Test	2	2	1	538	A1	Zahlen	322	s
12	300	Test	2	3	0	423	A1	Zahlen	323	r
12	408	Test	1	4	1	423	A1	Zahlen	324	r
12	363	Test	1	1	1	524	A1	Zahlen	325	r
12	324	Test	1	1	1	606	A1	Zahlen	326	r
12	429	Test	2	2	1	450	A2	Buchstaben	327	s
12	1021	Test	2	3	1	435	A2	Buchstaben	328	r
12	480	Test	1	4	1	476	A2	Buchstaben	329	r
12	590	Test	1	1	0	630	A1	Zahlen	330	s
12	470	Test	1	1	0	378	A1	Zahlen	331	r
12	511	Test	2	2	1	410	A1	Zahlen	332	r
12	534	Test	2	3	1	576	A2	Buchstaben	333	s
12	351	Test	2	3	1	592	A1	Zahlen	334	s
12	436	Test	2	3	0	482	A2	Buchstaben	335	s
12	468	Test	1	4	1	593	A2	Buchstaben	336	r
12	1093	Test	2	2	1	489	A2	Buchstaben	337	r
12	427	Test	2	3	1	537	A1	Zahlen	338	s
12	616	Test	1	4	1	382	A1	Zahlen	339	r
12	19	Test	2	2	1	674	A1	Zahlen	340	r
12	486	Test	1	4	1	522	A1	Zahlen	341	r
12	1692	Test	1	1	0	376	A2	Buchstaben	342	s
12	466	Test	1	1	1	630	A2	Buchstaben	343	r
12	541	Test	2	2	1	463	A2	Buchstaben	344	r
12	569	Test	1	4	1	561	A1	Zahlen	345	s
12	392	Test	2	2	1	527	A2	Buchstaben	346	s
12	279	Test	2	3	1	539	A2	Buchstaben	347	r
12	578	Test	2	3	1	450	A2	Buchstaben	348	r
12	495	Test	2	3	1	395	A1	Zahlen	349	s
12	361	Test	2	3	1	546	A1	Zahlen	350	r
12	408	Test	2	3	1	487	A2	Buchstaben	351	s
12	495	Test	2	3	1	475	A2	Buchstaben	352	r
13		Practice			1	895	A1			
13		Practice			0	19	A1			
13		Practice			0	2131	A1			
13		Practice			1	737	A1			
13		Practice			1	756	A1			
13		Practice			1	676	A1			
13		Practice			1	743	A1			
13		Practice			1	687	A1			
13		Practice			0	866	A1			
13		Practice			1	541	A1			
13		Practice			1	525	A1			
13		Practice			1	415	A1			
13		Practice			1	495	A1			
13		Practice			1	680	A1			
13		Practice			1	813	A1			
13		Practice			1	705	A1			
13		Practice			1	1402	A2			
13		Practice			1	817	A2			
13		Practice			1	941	A2			
13		Practice			1	608	A2			
13		Practice			1	527	A2			
13		Practice			1	649	A2			
13		Practice			1	805	A2			
13		Practice			1	717	A2			
13		Practice			1	639	A2			
13		Practice			1	686	A2			
13		Practice			1	601	A2			
13		Practice			1	609	A2			
13		Practice			1	590	A2			
13		Practice			1	807	A2			
13		Practice			1	1022	A2			
13		Practice			1	491	A2			
13	2638	Practice			1	1732	A2	Buchstaben		NaN
13	1302	Practice			1	890	A2	Buchstaben		r
13	486	Practice			1	1282	A1	Zahlen		s
13	788	Practice			1	756	A2	Buchstaben		s
13	676	Practice			1	833	A1	Zahlen		s
13	501	Practice			1	833	A2	Buchstaben		s
13	312	Practice			1	883	A2	Buchstaben		r
13	438	Practice			1	692	A1	Zahlen		s
13	326	Practice			1	648	A1	Zahlen		r
13	355	Practice			1	589	A2	Buchstaben		s
13	237	Practice			1	707	A1	Zahlen		s
13	700	Practice			1	696	A1	Zahlen		r
13	1172	Practice			1	589	A2	Buchstaben		s
13	890	Practice			1	1036	A1	Zahlen		s
13	643	Practice			1	696	A2	Buchstaben		s
13	925	Practice			1	943	A2	Buchstaben		r
13	613	Baseline			1	740	A2	Buchstaben	1	NaN
13	306	Baseline			0	503	A2	Buchstaben	2	r
13	571	Baseline			1	788	A1	Zahlen	3	s
13	561	Baseline			1	835	A1	Zahlen	4	r
13	480	Baseline			1	660	A2	Buchstaben	5	s
13	1001	Baseline			1	664	A2	Buchstaben	6	r
13	571	Baseline			1	780	A2	Buchstaben	7	r
13	747	Baseline			1	629	A2	Buchstaben	8	r
13	481	Baseline			1	782	A1	Zahlen	9	s
13	630	Baseline			1	670	A2	Buchstaben	10	s
13	760	Baseline			1	769	A2	Buchstaben	11	r
13	526	Baseline			1	729	A2	Buchstaben	12	r
13	569	Baseline			1	634	A2	Buchstaben	13	r
13	428	Baseline			1	641	A1	Zahlen	14	s
13	116	Baseline			1	687	A1	Zahlen	15	r
13	4	Baseline			1	1059	A1	Zahlen	16	r
13	450	Baseline			1	599	A1	Zahlen	17	r
13	493	Baseline			1	959	A1	Zahlen	18	r
13	337	Baseline			1	779	A2	Buchstaben	19	s
13	41	Baseline			1	751	A2	Buchstaben	20	r
13	567	Baseline			1	616	A2	Buchstaben	21	r
13	644	Baseline			1	794	A2	Buchstaben	22	r
13	466	Baseline			1	695	A2	Buchstaben	23	r
13	97	Baseline			0	596	A1	Zahlen	24	s
13	376	Baseline			1	704	A1	Zahlen	25	r
13	531	Baseline			1	822	A1	Zahlen	26	r
13	548	Baseline			1	1141	A1	Zahlen	27	r
13	525	Baseline			0	831	A2	Buchstaben	28	s
13	644	Baseline			1	601	A2	Buchstaben	29	r
13	551	Baseline			1	672	A1	Zahlen	30	s
13	405	Baseline			1	676	A2	Buchstaben	31	s
13	649	Baseline			1	575	A2	Buchstaben	32	r
13	631	Baseline			1	629	A2	Buchstaben	33	r
13	955	Baseline			1	1253	A1	Zahlen	34	s
13	655	Baseline			1	788	A2	Buchstaben	35	s
13	571	Baseline			1	715	A1	Zahlen	36	s
13	548	Baseline			1	637	A2	Buchstaben	37	s
13	1617	Baseline			1	696	A2	Buchstaben	38	r
13	629	Baseline			1	675	A2	Buchstaben	39	r
13	623	Baseline			1	565	A2	Buchstaben	40	r
13	526	Baseline			1	721	A2	Buchstaben	41	r
13	676	Baseline			1	543	A2	Buchstaben	42	r
13	561	Baseline			1	658	A2	Buchstaben	43	r
13	822	Baseline			1	716	A2	Buchstaben	44	r
13	493	Baseline			1	608	A2	Buchstaben	45	r
13	447	Baseline			1	652	A2	Buchstaben	46	r
13	491	Baseline			1	622	A2	Buchstaben	47	r
13	517	Baseline			1	672	A2	Buchstaben	48	r
13	396	Baseline			1	715	A1	Zahlen	49	s
13	341	Baseline			1	695	A1	Zahlen	50	r
13	474	Baseline			1	446	A1	Zahlen	51	r
13	628	Baseline			1	587	A1	Zahlen	52	r
13	393	Baseline			1	720	A1	Zahlen	53	r
13	491	Baseline			1	613	A1	Zahlen	54	r
13	474	Baseline			0	526	A1	Zahlen	55	r
13	1111	Baseline			1	586	A2	Buchstaben	56	s
13	1962	Baseline			1	716	A2	Buchstaben	57	r
13	909	Baseline			1	857	A2	Buchstaben	58	r
13	733	Baseline			1	769	A1	Zahlen	59	s
13	527	Baseline			1	657	A2	Buchstaben	60	s
13	637	Baseline			1	643	A2	Buchstaben	61	r
13	1055	Baseline			0	741	A2	Buchstaben	62	r
13	619	Baseline			1	610	A1	Zahlen	63	s
13	672	Baseline			1	685	A2	Buchstaben	64	s
13	469	Baseline			0	595	A1	Zahlen	65	s
13	594	Baseline			1	649	A2	Buchstaben	66	s
13	424	Baseline			1	638	A2	Buchstaben	67	r
13	514	Baseline			1	661	A2	Buchstaben	68	r
13	482	Baseline			1	830	A1	Zahlen	69	s
13	692	Baseline			1	711	A2	Buchstaben	70	s
13	481	Baseline			1	733	A1	Zahlen	71	s
13	567	Baseline			1	1167	A2	Buchstaben	72	s
13	424	Baseline			1	782	A1	Zahlen	73	s
13	60	Baseline			1	824	A1	Zahlen	74	r
13	375	Baseline			1	599	A1	Zahlen	75	r
13	383	Baseline			1	591	A1	Zahlen	76	r
13	759	Baseline			1	856	A2	Buchstaben	77	s
13	342	Baseline			1	847	A2	Buchstaben	78	r
13	638	Baseline			0	948	A2	Buchstaben	79	r
13	680	Baseline			1	724	A2	Buchstaben	80	r
13	387	Baseline			1	595	A1	Zahlen	81	s
13	444	Baseline			1	577	A1	Zahlen	82	r
13	608	Baseline			1	535	A1	Zahlen	83	r
13	392	Baseline			1	737	A1	Zahlen	84	r
13	513	Baseline			1	524	A1	Zahlen	85	r
13	695	Baseline			1	930	A1	Zahlen	86	r
13	693	Baseline			0	512	A2	Buchstaben	87	s
13	994	Baseline			1	665	A2	Buchstaben	88	r
13	1380	Baseline			1	700	A2	Buchstaben	89	r
13	688	Baseline			1	556	A2	Buchstaben	90	r
13	652	Baseline			1	578	A2	Buchstaben	91	r
13	417	Baseline			1	656	A1	Zahlen	92	s
13	476	Baseline			1	840	A1	Zahlen	93	r
13	423	Baseline			1	733	A1	Zahlen	94	r
13	431	Baseline			0	717	A2	Buchstaben	95	s
13	375	Baseline			1	823	A1	Zahlen	96	s
13	411	Baseline			1	586	A1	Zahlen	97	r
13	516	Baseline			1	486	A1	Zahlen	98	r
13	560	Baseline			1	705	A1	Zahlen	99	r
13	435	Baseline			1	570	A2	Buchstaben	100	s
13	1139	Baseline			1	630	A2	Buchstaben	101	r
13	1042	Baseline			1	1256	A2	Buchstaben	102	r
13	494	Baseline			1	626	A2	Buchstaben	103	r
13	606	Baseline			1	1037	A2	Buchstaben	104	r
13	626	Baseline			1	504	A2	Buchstaben	105	r
13	595	Baseline			1	570	A2	Buchstaben	106	r
13	628	Baseline			1	602	A2	Buchstaben	107	r
13	626	Baseline			1	648	A2	Buchstaben	108	r
13	708	Baseline			1	703	A1	Zahlen	109	s
13	403	Baseline			1	499	A1	Zahlen	110	r
13	488	Baseline			1	468	A1	Zahlen	111	r
13	486	Baseline			1	1194	A1	Zahlen	112	r
13	473	Baseline			1	669	A1	Zahlen	113	r
13	425	Baseline			1	727	A1	Zahlen	114	r
13	680	Baseline			1	588	A1	Zahlen	115	r
13	411	Baseline			1	530	A1	Zahlen	116	r
13	490	Baseline			1	749	A1	Zahlen	117	r
13	653	Baseline			1	651	A2	Buchstaben	118	s
13	529	Baseline			1	436	A2	Buchstaben	119	r
13	761	Baseline			1	818	A2	Buchstaben	120	r
13	344	Baseline			1	632	A2	Buchstaben	121	r
13	47	Baseline			1	597	A1	Zahlen	122	s
13	1139	Baseline			0	556	A2	Buchstaben	123	s
13	366	Baseline			1	1639	A1	Zahlen	124	s
13	557	Baseline			1	669	A1	Zahlen	125	r
13	616	Baseline			1	695	A1	Zahlen	126	r
13	736	Baseline			1	618	A2	Buchstaben	127	s
13	639	Baseline			1	989	A2	Buchstaben	128	r
13	548	Baseline			1	981	A2	Buchstaben	129	r
13	422	Baseline			1	628	A2	Buchstaben	130	r
13	409	Baseline			1	856	A2	Buchstaben	131	r
13	413	Baseline			1	532	A2	Buchstaben	132	r
13	389	Baseline			1	605	A2	Buchstaben	133	r
13	644	Baseline			1	1050	A1	Zahlen	134	s
13	774	Baseline			1	590	A1	Zahlen	135	r
13	630	Baseline			1	1468	A1	Zahlen	136	r
13	586	Baseline			0	946	A1	Zahlen	137	r
13	552	Baseline			1	786	A1	Zahlen	138	r
13	858	Baseline			1	623	A1	Zahlen	139	r
13	726	Baseline			1	840	A1	Zahlen	140	r
13	821	Baseline			1	708	A2	Buchstaben	141	s
13	1288	Baseline			0	556	A2	Buchstaben	142	r
13	867	Baseline			1	735	A2	Buchstaben	143	r
13	544	Baseline			1	442	A2	Buchstaben	144	r
13	398	Baseline			0	566	A1	Zahlen	145	s
13	439	Baseline			1	557	A1	Zahlen	146	r
13	405	Baseline			1	629	A1	Zahlen	147	r
13	634	Baseline			1	897	A1	Zahlen	148	r
13	2114	Baseline			1	645	A1	Zahlen	149	r
13	744	Baseline			1	962	A1	Zahlen	150	r
13	554	Baseline			1	611	A1	Zahlen	151	r
13	603	Baseline			1	602	A1	Zahlen	152	r
13	590	Baseline			1	550	A1	Zahlen	153	r
13	521	Baseline			1	516	A1	Zahlen	154	r
13	501	Baseline			1	488	A1	Zahlen	155	r
13	539	Baseline			1	469	A1	Zahlen	156	r
13	583	Baseline			1	607	A1	Zahlen	157	r
13	437	Baseline			1	1299	A1	Zahlen	158	r
13	389	Baseline			1	628	A2	Buchstaben	159	s
13	449	Baseline			1	590	A2	Buchstaben	160	r
13	661	Baseline			1	1234	A2	Buchstaben	161	r
13	2423	Baseline			1	646	A2	Buchstaben	162	r
13	540	Baseline			1	725	A2	Buchstaben	163	r
13	1382	Baseline			1	599	A2	Buchstaben	164	r
13	965	Baseline			1	814	A2	Buchstaben	165	r
13	547	Baseline			1	804	A2	Buchstaben	166	r
13	25	Baseline			1	815	A2	Buchstaben	167	r
13	1102	Baseline			1	546	A2	Buchstaben	168	r
13	923	Baseline			1	670	A1	Zahlen	169	s
13	484	Baseline			1	712	A1	Zahlen	170	r
13	456	Baseline			1	509	A1	Zahlen	171	r
13	327	Baseline			0	625	A1	Zahlen	172	r
13	526	Baseline			1	688	A1	Zahlen	173	r
13	923	Baseline			1	782	A1	Zahlen	174	r
13	565	Baseline			1	630	A1	Zahlen	175	r
13	1181	Baseline			1	646	A1	Zahlen	176	r
13										
13	2265	Test	1	0	1	623	A2	Buchstaben	1	NaN
13	906	Test	2	2	1	645	A1	Zahlen	2	s
13	808	Test	1	4	1	1015	A2	Buchstaben	3	s
13	406	Test	1	1	1	813	A1	Zahlen	4	s
13	225	Test	2	2	1	1007	A1	Zahlen	5	r
13	254	Test	2	3	1	596	A1	Zahlen	6	r
13	280	Test	1	4	1	564	A1	Zahlen	7	r
13	156	Test	1	1	1	629	A1	Zahlen	8	r
13	179	Test	1	1	1	970	A2	Buchstaben	9	s
13	1185	Test	1	1	1	585	A2	Buchstaben	10	r
13	361	Test	1	1	1	762	A2	Buchstaben	11	r
13	416	Test	1	1	1	1070	A2	Buchstaben	12	r
13	147	Test	2	2	1	556	A1	Zahlen	13	s
13	347	Test	2	3	1	661	A1	Zahlen	14	r
13	24	Test	1	4	1	655	A2	Buchstaben	15	s
13	162	Test	2	2	1	651	A2	Buchstaben	16	r
13	1013	Test	2	3	1	547	A2	Buchstaben	17	r
13	220	Test	1	4	1	499	A1	Zahlen	18	s
13	54	Test	1	1	1	467	A1	Zahlen	19	r
13	782	Test	1	1	0	454	A2	Buchstaben	20	s
13	57	Test	2	2	1	542	A1	Zahlen	21	s
13	500	Test	1	4	1	511	A2	Buchstaben	22	s
13	207	Test	1	1	1	790	A1	Zahlen	23	s
13	110	Test	2	2	1	569	A1	Zahlen	24	r
13	472	Test	2	3	1	661	A1	Zahlen	25	r
13	1622	Test	2	3	1	1621	A2	Buchstaben	26	s
13	82	Test	1	4	0	454	A2	Buchstaben	27	r
13	148	Test	2	2	0	790	A2	Buchstaben	28	r
13	574	Test	1	4	1	567	A1	Zahlen	29	s
13	142	Test	1	1	1	631	A2	Buchstaben	30	s
13	173	Test	2	2	1	429	A2	Buchstaben	31	r
13	119	Test	1	4	1	538	A1	Zahlen	32	s
13	145	Test	1	1	1	538	A1	Zahlen	33	r
13	1114	Test	1	1	1	469	A1	Zahlen	34	r
13	769	Test	2	2	1	626	A1	Zahlen	35	r
13	47	Test	1	4	1	485	A1	Zahlen	36	r
13	86	Test	1	1	0	578	A1	Zahlen	37	r
13	210	Test	1	1	1	593	A1	Zahlen	38	r
13	209	Test	2	2	1	672	A1	Zahlen	39	r
13	169	Test	2	3	0	530	A2	Buchstaben	40	s
13	1279	Test	1	4	1	435	A1	Zahlen	41	s
13	776	Test	2	2	1	585	A1	Zahlen	42	r
13	849	Test	2	3	1	463	A1	Zahlen	43	r
13	841	Test	1	4	1	519	A1	Zahlen	44	r
13	1025	Test	1	1	1	607	A1	Zahlen	45	r
13	584	Test	2	2	1	592	A2	Buchstaben	46	s
13	1272	Test	1	4	1	533	A2	Buchstaben	47	r
13	981	Test	1	1	1	573	A1	Zahlen	48	s
13	726	Test	1	1	1	639	A1	Zahlen	49	r
13	1196	Test	2	2	1	572	A1	Zahlen	50	r
13	724	Test	1	4	1	598	A1	Zahlen	51	r
13	564	Test	1	1	0	541	A1	Zahlen	52	r
13	99	Test	2	2	1	543	A1	Zahlen	53	r
13	124	Test	2	3	1	598	A1	Zahlen	54	r
13	157	Test	1	4	1	622	A1	Zahlen	55	r
13	572	Test	1	1	1	621	A1	Zahlen	56	r
13	497	Test	2	2	1	565	A1	Zahlen	57	r
13	691	Test	1	4	1	695	A2	Buchstaben	58	s
13	223	Test	1	1	1	749	A2	Buchstaben	59	r
13	391	Test	2	2	1	439	A2	Buchstaben	60	r
13	988	Test	2	3	1	492	A2	Buchstaben	61	r
13	1038	Test	1	4	1	508	A2	Buchstaben	62	r
13	214	Test	2	2	1	700	A2	Buchstaben	63	r
13	1087	Test	2	3	1	691	A1	Zahlen	64	s
13	3055	Test	1	4	0	405	A1	Zahlen	65	r
13	173	Test	1	1	1	589	A1	Zahlen	66	r
13	116	Test	2	2	1	638	A1	Zahlen	67	r
13	1121	Test	1	4	1	404	A1	Zahlen	68	r
13	337	Test	1	1	0	443	A1	Zahlen	69	r
13	333	Test	2	2	1	527	A1	Zahlen	70	r
13	279	Test	2	3	0	443	A1	Zahlen	71	r
13	457	Test	2	3	1	510	A1	Zahlen	72	r
13	326	Test	2	3	1	592	A1	Zahlen	73	r
13	39	Test	1	4	1	556	A2	Buchstaben	74	s
13	4	Test	2	2	1	436	A1	Zahlen	75	s
13	575	Test	2	3	0	327	A1	Zahlen	76	r
13	1610	Test	2	3	1	473	A2	Buchstaben	77	s
13	765	Test	2	3	1	445	A2	Buchstaben	78	r
13	520	Test	1	4	0	507	A2	Buchstaben	79	r
13	47	Test	2	2	1	493	A1	Zahlen	80	s
13	180	Test	2	3	1	476	A1	Zahlen	81	r
13	76	Test	2	3	0	513	A1	Zahlen	82	r
13	85	Test	2	3	1	537	A1	Zahlen	83	r
13	443	Test	1	4	1	712	A1	Zahlen	84	r
13	122	Test	1	1	1	564	A1	Zahlen	85	r
13	93	Test	1	1	0	536	A1	Zahlen	86	r
13	880	Test	1	1	1	508	A2	Buchstaben	87	s
13	789	Test	1	1	0	445	A1	Zahlen	88	s
13	526	Test	1	1	1	496	A1	Zahlen	89	r
13	651	Test	2	2	1	520	A1	Zahlen	90	r
13	176	Test	1	4	0	520	A1	Zahlen	91	r
13	877	Test	1	1	0	545	A1	Zahlen	92	r
13	853	Test	1	1	1	578	A1	Zahlen	93	r
13	922	Test	2	2	0	508	A1	Zahlen	94	r
13	927	Test	2	3	1	537	A1	Zahlen	95	r
13	696	Test	2	3	1	492	A1	Zahlen	96	r
13	598	Test	1	4	1	638	A1	Zahlen	97	r
13	1996	Test	2	2	1	540	A2	Buchstaben	98	s
13	1149	Test	1	4	1	551	A2	Buchstaben	99	r
13	822	Test	1	1	1	477	A2	Buchstaben	100	r
13	649	Test	1	1	1	439	A1	Zahlen	101	s
13	724	Test	2	2	1	534	A1	Zahlen	102	r
13	662	Test	2	3	1	515	A1	Zahlen	103	r
13	708	Test	1	4	1	734	A2	Buchstaben	104	s
13	726	Test	1	1	1	425	A1	Zahlen	105	s
13	1064	Test	1	1	1	373	A1	Zahlen	106	r
13	781	Test	1	1	0	397	A1	Zahlen	107	r
13	249	Test	2	2	1	518	A1	Zahlen	108	r
13	744	Test	2	3	1	578	A2	Buchstaben	109	s
13	1447	Test	1	4	1	613	A2	Buchstaben	110	r
13	777	Test	1	1	1	521	A2	Buchstaben	111	r
13	785	Test	1	1	1	658	A2	Buchstaben	112	r
13	772	Test	2	2	1	492	A1	Zahlen	113	s
13	1133	Test	1	4	1	496	A1	Zahlen	114	r
13	880	Test	1	1	1	469	A1	Zahlen	115	r
13	120	Test	2	2	1	531	A1	Zahlen	116	r
13	124	Test	1	4	1	894	A1	Zahlen	117	r
13	63	Test	2	2	1	724	A1	Zahlen	118	r
13	1069	Test	2	3	1	1082	A1	Zahlen	119	r
13	934	Test	2	3	1	736	A1	Zahlen	120	r
13	15	Test	2	3	0	493	A1	Zahlen	121	r
13	369	Test	2	3	1	641	A2	Buchstaben	122	s
13	149	Test	2	3	1	694	A2	Buchstaben	123	r
13	583	Test	1	4	1	583	A1	Zahlen	124	s
13	598	Test	1	1	0	405	A1	Zahlen	125	r
13	580	Test	2	2	0	364	A1	Zahlen	126	r
13	14	Test	1	4	1	572	A1	Zahlen	127	r
13	1404	Test	1	1	1	659	A1	Zahlen	128	r
13	695	Test	2	2	1	458	A1	Zahlen	129	r
13	1167	Test	1	4	0	376	A1	Zahlen	130	r
13	39	Test	2	2	1	363	A1	Zahlen	131	r
13	898	Test	1	4	1	542	A2	Buchstaben	132	s
13	175	Test	2	2	1	527	A2	Buchstaben	133	r
13	654	Test	2	3	0	635	A2	Buchstaben	134	r
13	955	Test	1	4	1	532	A1	Zahlen	135	s
13	1034	Test	1	1	1	617	A1	Zahlen	136	r
13	1141	Test	2	2	1	463	A1	Zahlen	137	r
13	945	Test	1	4	1	562	A1	Zahlen	138	r
13	620	Test	2	2	0	627	A1	Zahlen	139	r
13	851	Test	1	4	1	737	A1	Zahlen	140	r
13	2418	Test	1	1	1	338	A2	Buchstaben	141	s
13	187	Test	2	2	1	563	A2	Buchstaben	142	r
13	3962	Test	1	4	1	532	A2	Buchstaben	143	r
13	549	Test	2	2	1	470	A1	Zahlen	144	s
13	129	Test	1	4	1	579	A1	Zahlen	145	r
13	394	Test	2	2	1	602	A1	Zahlen	146	r
13	544	Test	1	4	1	601	A2	Buchstaben	147	s
13	781	Test	1	1	1	566	A1	Zahlen	148	s
13	606	Test	1	1	1	461	A2	Buchstaben	149	s
13	617	Test	2	2	1	496	A1	Zahlen	150	s
13	10	Test	2	3	1	568	A1	Zahlen	151	r
13	567	Test	1	4	1	544	A2	Buchstaben	152	s
13	104	Test	2	2	1	611	A1	Zahlen	153	s
13	48	Test	2	3	1	534	A1	Zahlen	154	r
13	374	Test	2	3	1	702	A1	Zahlen	155	r
13	607	Test	1	4	1	606	A2	Buchstaben	156	s
13	350	Test	2	2	1	575	A2	Buchstaben	157	r
13	500	Test	1	4	1	696	A2	Buchstaben	158	r
13	448	Test	2	2	1	486	A2	Buchstaben	159	r
13	801	Test	2	3	1	489	A2	Buchstaben	160	r
13	280	Test	1	4	1	725	A1	Zahlen	161	s
13	132	Test	2	2	1	542	A1	Zahlen	162	r
13	93	Test	1	4	1	528	A1	Zahlen	163	r
13	129	Test	1	1	1	571	A1	Zahlen	164	r
13	698	Test	1	1	1	525	A1	Zahlen	165	r
13	814	Test	2	2	1	877	A2	Buchstaben	166	s
13	72	Test	2	3	0	508	A2	Buchstaben	167	r
13	55	Test	2	3	1	532	A2	Buchstaben	168	r
13	612	Test	1	4	1	787	A2	Buchstaben	169	r
13	212	Test	2	2	1	563	A2	Buchstaben	170	r
13	202	Test	1	4	1	498	A1	Zahlen	171	s
13	114	Test	2	2	1	413	A1	Zahlen	172	r
13	532	Test	2	3	1	518	A1	Zahlen	173	r
13	184	Test	1	4	1	640	A1	Zahlen	174	r
13	170	Test	2	2	1	531	A1	Zahlen	175	r
13	146	Test	1	4	1	467	A1	Zahlen	176	r
13	272	Test	2	2	1	564	A1	Zahlen	177	r
13	213	Test	2	3	1	642	A1	Zahlen	178	r
13	775	Test	2	3	1	503	A1	Zahlen	179	r
13	775	Test	1	4	1	720	A2	Buchstaben	180	s
13	200	Test	1	1	1	671	A2	Buchstaben	181	r
13	498	Test	2	2	1	598	A2	Buchstaben	182	r
13	75	Test	1	4	1	527	A2	Buchstaben	183	r
13	217	Test	2	2	1	560	A2	Buchstaben	184	r
13	166	Test	1	4	1	647	A2	Buchstaben	185	r
13	579	Test	1	1	1	619	A2	Buchstaben	186	r
13	109	Test	1	1	1	513	A2	Buchstaben	187	r
13	27	Test	1	1	1	841	A2	Buchstaben	188	r
13	701	Test	1	1	1	633	A2	Buchstaben	189	r
13	214	Test	2	2	1	684	A1	Zahlen	190	s
13	535	Test	1	4	1	897	A2	Buchstaben	191	s
13	634	Test	1	1	1	544	A2	Buchstaben	192	r
13	49	Test	1	1	0	678	A1	Zahlen	193	s
13	812	Test	2	2	1	523	A1	Zahlen	194	r
13	6345	Test	1	4	1	341	A2	Buchstaben	195	s
13	469	Test	1	1	1	522	A2	Buchstaben	196	r
13	251	Test	1	1	0	880	A2	Buchstaben	197	r
13	449	Test	1	1	0	462	A2	Buchstaben	198	r
13	1108	Test	2	2	1	831	A2	Buchstaben	199	r
13	715	Test	1	4	1	454	A2	Buchstaben	200	r
13	585	Test	1	1	1	617	A2	Buchstaben	201	r
13	542	Test	2	2	1	768	A2	Buchstaben	202	r
13	358	Test	2	3	1	551	A1	Zahlen	203	s
13	328	Test	2	3	1	586	A1	Zahlen	204	r
13	721	Test	2	3	0	900	A1	Zahlen	205	r
13	13959	Test	1	4	1	397	A2	Buchstaben	206	s
13	490	Test	1	1	1	598	A1	Zahlen	207	s
13	595	Test	1	1	1	539	A1	Zahlen	208	r
13	123	Test	1	1	1	501	A1	Zahlen	209	r
13	104	Test	2	2	1	492	A1	Zahlen	210	r
13	118	Test	1	4	1	417	A1	Zahlen	211	r
13	728	Test	1	1	1	586	A1	Zahlen	212	r
13	232	Test	2	2	1	591	A1	Zahlen	213	r
13	110	Test	2	3	1	425	A1	Zahlen	214	r
13	571	Test	2	3	1	596	A1	Zahlen	215	r
13	112	Test	1	4	1	610	A1	Zahlen	216	r
13	47	Test	2	2	1	668	A1	Zahlen	217	r
13	768	Test	1	4	1	545	A1	Zahlen	218	r
13	906	Test	1	1	0	445	A2	Buchstaben	219	s
13	748	Test	1	1	1	518	A2	Buchstaben	220	r
13	73	Test	2	2	1	829	A2	Buchstaben	221	r
13	114	Test	2	3	1	645	A1	Zahlen	222	s
13	702	Test	2	3	1	554	A1	Zahlen	223	r
13	793	Test	1	4	0	785	A1	Zahlen	224	r
13	476	Test	2	2	1	456	A1	Zahlen	225	r
13	1493	Test	1	4	0	521	A1	Zahlen	226	r
13	533	Test	1	1	1	671	A1	Zahlen	227	r
13	780	Test	2	2	1	469	A2	Buchstaben	228	s
13	1182	Test	2	3	1	526	A2	Buchstaben	229	r
13	757	Test	2	3	1	479	A2	Buchstaben	230	r
13	271	Test	1	4	1	700	A1	Zahlen	231	s
13	504	Test	2	2	1	2084	A2	Buchstaben	232	s
13	1422	Test	1	4	1	629	A1	Zahlen	233	s
13	569	Test	1	1	1	594	A1	Zahlen	234	r
13	639	Test	1	1	1	677	A1	Zahlen	235	r
13	680	Test	1	1	1	500	A1	Zahlen	236	r
13	455	Test	2	2	1	508	A1	Zahlen	237	r
13	69	Test	1	4	1	617	A1	Zahlen	238	r
13	102	Test	2	2	1	497	A1	Zahlen	239	r
13	146	Test	2	3	1	571	A1	Zahlen	240	r
13	522	Test	2	3	1	516	A1	Zahlen	241	r
13	31	Test	2	3	1	685	A1	Zahlen	242	r
13	103	Test	1	4	1	434	A1	Zahlen	243	r
13	910	Test	1	1	1	345	A1	Zahlen	244	r
13	219	Test	2	2	1	513	A1	Zahlen	245	r
13	52	Test	2	3	1	626	A1	Zahlen	246	r
13	502	Test	2	3	1	481	A1	Zahlen	247	r
13	452	Test	2	3	1	538	A1	Zahlen	248	r
13	282	Test	1	4	1	486	A1	Zahlen	249	r
13	457	Test	1	1	1	518	A1	Zahlen	250	r
13	350	Test	1	1	1	528	A1	Zahlen	251	r
13	386	Test	2	2	1	538	A1	Zahlen	252	r
13	380	Test	1	4	1	596	A1	Zahlen	253	r
13	475	Test	2	2	1	527	A1	Zahlen	254	r
13	489	Test	1	4	1	589	A1	Zahlen	255	r
13	300	Test	1	1	1	631	A1	Zahlen	256	r
13	157	Test	2	2	1	525	A1	Zahlen	257	r
13	156	Test	1	4	1	524	A1	Zahlen	258	r
13	540	Test	1	1	1	606	A1	Zahlen	259	r
13	242	Test	1	1	1	607	A1	Zahlen	260	r
13	998	Test	1	1	1	494	A1	Zahlen	261	r
13	929	Test	2	2	1	427	A2	Buchstaben	262	s
13	933	Test	2	3	1	504	A2	Buchstaben	263	r
13	667	Test	2	3	1	591	A2	Buchstaben	264	r
13	485	Test	2	3	1	586	A2	Buchstaben	265	r
13	529	Test	1	4	1	587	A2	Buchstaben	266	r
13	563	Test	1	1	1	660	A2	Buchstaben	267	r
13	38	Test	2	2	1	652	A1	Zahlen	268	s
13	398	Test	2	3	1	605	A1	Zahlen	269	r
13	242	Test	2	3	1	479	A1	Zahlen	270	r
13	210	Test	1	4	1	641	A1	Zahlen	271	r
13	750	Test	1	1	1	559	A2	Buchstaben	272	s
13	351	Test	2	2	1	512	A2	Buchstaben	273	r
13	522	Test	1	4	1	540	A2	Buchstaben	274	r
13	91	Test	2	2	1	623	A1	Zahlen	275	s
13	100	Test	2	3	1	608	A1	Zahlen	276	r
13	347	Test	2	3	1	517	A1	Zahlen	277	r
13	54	Test	2	3	1	588	A1	Zahlen	278	r
13	145	Test	2	3	1	546	A1	Zahlen	279	r
13	1002	Test	2	3	1	618	A1	Zahlen	280	r
13	673	Test	2	3	1	917	A1	Zahlen	281	r
13	9488	Test	1	4	1	439	A2	Buchstaben	282	s
13	266	Test	1	1	1	526	A2	Buchstaben	283	r
13	175	Test	1	1	1	559	A1	Zahlen	284	s
13	3647	Test	2	2	1	414	A1	Zahlen	285	r
13	619	Test	2	3	1	634	A1	Zahlen	286	r
13	680	Test	1	4	0	636	A1	Zahlen	287	r
13	529	Test	2	2	1	404	A1	Zahlen	288	r
13	689	Test	2	3	1	773	A1	Zahlen	289	r
13	747	Test	2	3	1	516	A1	Zahlen	290	r
13	589	Test	2	3	1	508	A1	Zahlen	291	r
13	765	Test	1	4	1	486	A1	Zahlen	292	r
13	774	Test	2	2	1	607	A1	Zahlen	293	r
13	875	Test	2	3	1	432	A1	Zahlen	294	r
13	1045	Test	1	4	1	491	A1	Zahlen	295	r
13	1750	Test	1	1	1	512	A1	Zahlen	296	r
13	713	Test	1	1	1	708	A2	Buchstaben	297	s
13	519	Test	2	2	1	562	A2	Buchstaben	298	r
13	619	Test	1	4	1	506	A2	Buchstaben	299	r
13	509	Test	2	2	1	584	A2	Buchstaben	300	r
13	525	Test	1	4	1	519	A2	Buchstaben	301	r
13	609	Test	2	2	1	592	A2	Buchstaben	302	r
13	580	Test	1	4	1	572	A2	Buchstaben	303	r
13	657	Test	2	2	1	630	A2	Buchstaben	304	r
13	501	Test	2	3	1	520	A2	Buchstaben	305	r
13	679	Test	1	4	1	556	A2	Buchstaben	306	r
13	435	Test	2	2	1	722	A2	Buchstaben	307	r
13	697	Test	1	4	1	485	A2	Buchstaben	308	r
13	422	Test	2	2	1	637	A2	Buchstaben	309	r
13	121	Test	1	4	1	771	A2	Buchstaben	310	r
13	660	Test	1	1	1	544	A2	Buchstaben	311	r
13	329	Test	2	2	1	515	A2	Buchstaben	312	r
13	1172	Test	1	4	1	445	A2	Buchstaben	313	r
13	738	Test	1	1	1	444	A2	Buchstaben	314	r
13	640	Test	2	2	1	510	A2	Buchstaben	315	r
13	605	Test	2	3	0	453	A2	Buchstaben	316	r
13	2684	Test	2	3	1	497	A2	Buchstaben	317	r
13	577	Test	2	3	1	664	A2	Buchstaben	318	r
13	524	Test	2	3	1	398	A2	Buchstaben	319	r
13	501	Test	2	3	1	537	A2	Buchstaben	320	r
13	856	Test	1	4	1	517	A2	Buchstaben	321	r
13	53	Test	2	2	1	346	A2	Buchstaben	322	r
13	792	Test	2	3	1	424	A2	Buchstaben	323	r
13	1148	Test	1	4	1	454	A2	Buchstaben	324	r
13	1098	Test	1	1	1	517	A2	Buchstaben	325	r
13	1110	Test	1	1	1	577	A2	Buchstaben	326	r
13	1381	Test	2	2	0	470	A2	Buchstaben	327	r
13	1001	Test	2	3	1	848	A1	Zahlen	328	s
13	918	Test	1	4	1	585	A1	Zahlen	329	r
13	887	Test	1	1	1	556	A1	Zahlen	330	r
13	1124	Test	1	1	1	447	A1	Zahlen	331	r
13	538	Test	2	2	1	540	A1	Zahlen	332	r
13	548	Test	2	3	1	494	A1	Zahlen	333	r
13	724	Test	2	3	1	447	A1	Zahlen	334	r
13	640	Test	2	3	1	358	A1	Zahlen	335	r
13	804	Test	1	4	0	476	A1	Zahlen	336	r
13	6224	Test	2	2	1	1088	A1	Zahlen	337	r
13	433	Test	2	3	0	503	A1	Zahlen	338	r
13	482	Test	1	4	1	334	A1	Zahlen	339	r
13	158	Test	2	2	0	335	A1	Zahlen	340	r
13	802	Test	1	4	1	474	A1	Zahlen	341	r
13	839	Test	1	1	1	436	A2	Buchstaben	342	s
13	841	Test	1	1	1	510	A2	Buchstaben	343	r
13	632	Test	2	2	1	406	A2	Buchstaben	344	r
13	1083	Test	1	4	1	559	A1	Zahlen	345	s
13	215	Test	2	2	1	510	A1	Zahlen	346	r
13	1143	Test	2	3	1	568	A1	Zahlen	347	r
13	911	Test	2	3	0	474	A1	Zahlen	348	r
13	538	Test	2	3	1	484	A1	Zahlen	349	r
13	1839	Test	2	3	1	677	A1	Zahlen	350	r
13	1562	Test	2	3	0	411	A1	Zahlen	351	r
13	531	Test	2	3	1	486	A1	Zahlen	352	r
14		Practice			1	1001	A2			
14		Practice			1	904	A2			
14		Practice			1	468	A2			
14		Practice			1	520	A2			
14		Practice			1	531	A2			
14		Practice			1	462	A2			
14		Practice			1	449	A2			
14		Practice			1	862	A2			
14		Practice			1	482	A2			
14		Practice			1	604	A2			
14		Practice			1	509	A2			
14		Practice			1	415	A2			
14		Practice			1	862	A2			
14		Practice			1	441	A2			
14		Practice			1	471	A2			
14		Practice			1	915	A2			
14		Practice			1	540	A1			
14		Practice			1	583	A1			
14		Practice			1	349	A1			
14		Practice			1	383	A1			
14		Practice			1	415	A1			
14		Practice			1	350	A1			
14		Practice			0	351	A1			
14		Practice			1	500	A1			
14		Practice			1	388	A1			
14		Practice			1	631	A1			
14		Practice			1	516	A1			
14		Practice			1	423	A1			
14		Practice			1	461	A1			
14		Practice			1	474	A1			
14		Practice			1	470	A1			
14		Practice			1	467	A1			
14	3774	Practice			1	5406	A2	Buchstaben		NaN
14	2672	Practice			0	3372	A1	Zahlen		s
14	628	Practice			1	1300	A1	Zahlen		r
14	773	Practice			1	1614	A2	Buchstaben		s
14	596	Practice			1	691	A2	Buchstaben		r
14	293	Practice			1	641	A2	Buchstaben		r
14	581	Practice			1	717	A1	Zahlen		s
14	638	Practice			1	636	A1	Zahlen		r
14	449	Practice			1	742	A1	Zahlen		r
14	245	Practice			0	723	A2	Buchstaben		s
14	250	Practice			1	712	A2	Buchstaben		r
14	544	Practice			1	634	A2	Buchstaben		r
14	662	Practice			0	707	A1	Zahlen		s
14	398	Practice			1	638	A1	Zahlen		r
14	377	Practice			1	657	A2	Buchstaben		s
14	382	Practice			1	559	A1	Zahlen		s
14	506	Baseline			1	693	A2	Buchstaben	1	NaN
14	487	Baseline			1	691	A2	Buchstaben	2	r
14	326	Baseline			1	512	A1	Zahlen	3	s
14	322	Baseline			1	700	A1	Zahlen	4	r
14	232	Baseline			1	527	A1	Zahlen	5	r
14	183	Baseline			1	535	A1	Zahlen	6	r
14	210	Baseline			1	640	A1	Zahlen	7	r
14	261	Baseline			1	674	A1	Zahlen	8	r
14	366	Baseline			1	575	A1	Zahlen	9	r
14	269	Baseline			1	586	A1	Zahlen	10	r
14	290	Baseline			1	509	A1	Zahlen	11	r
14	336	Baseline			1	538	A1	Zahlen	12	r
14	19	Baseline			1	970	A1	Zahlen	13	r
14	394	Baseline			1	617	A2	Buchstaben	14	s
14	270	Baseline			1	603	A2	Buchstaben	15	r
14	96	Baseline			1	579	A2	Buchstaben	16	r
14	258	Baseline			1	551	A2	Buchstaben	17	r
14	296	Baseline			1	676	A2	Buchstaben	18	r
14	296	Baseline			0	444	A2	Buchstaben	19	r
14	362	Baseline			1	595	A2	Buchstaben	20	r
14	450	Baseline			1	607	A2	Buchstaben	21	r
14	358	Baseline			1	639	A1	Zahlen	22	s
14	306	Baseline			1	709	A1	Zahlen	23	r
14	256	Baseline			1	557	A2	Buchstaben	24	s
14	303	Baseline			1	602	A2	Buchstaben	25	r
14	240	Baseline			1	526	A1	Zahlen	26	s
14	318	Baseline			1	521	A1	Zahlen	27	r
14	244	Baseline			1	504	A2	Buchstaben	28	s
14	235	Baseline			1	553	A2	Buchstaben	29	r
14	274	Baseline			1	718	A2	Buchstaben	30	r
14	447	Baseline			1	605	A1	Zahlen	31	s
14	220	Baseline			1	546	A1	Zahlen	32	r
14	260	Baseline			1	544	A2	Buchstaben	33	s
14	351	Baseline			0	633	A2	Buchstaben	34	r
14	226	Baseline			1	576	A2	Buchstaben	35	r
14	342	Baseline			1	512	A1	Zahlen	36	s
14	273	Baseline			1	429	A1	Zahlen	37	r
14	475	Baseline			1	1135	A1	Zahlen	38	r
14	599	Baseline			1	566	A2	Buchstaben	39	s
14	360	Baseline			1	1136	A1	Zahlen	40	s
14	241	Baseline			1	606	A1	Zahlen	41	r
14	237	Baseline			1	627	A2	Buchstaben	42	s
14	279	Baseline			1	499	A2	Buchstaben	43	r
14	271	Baseline			1	428	A2	Buchstaben	44	r
14	234	Baseline			1	536	A2	Buchstaben	45	r
14	367	Baseline			1	568	A1	Zahlen	46	s
14	70	Baseline			1	755	A2	Buchstaben	47	s
14	361	Baseline			1	530	A2	Buchstaben	48	r
14	228	Baseline			1	610	A1	Zahlen	49	s
14	257	Baseline			1	997	A2	Buchstaben	50	s
14	283	Baseline			1	727	A1	Zahlen	51	s
14	202	Baseline			1	465	A1	Zahlen	52	r
14	349	Baseline			1	494	A2	Buchstaben	53	s
14	217	Baseline			1	407	A2	Buchstaben	54	r
14	160	Baseline			1	440	A2	Buchstaben	55	r
14	419	Baseline			1	562	A1	Zahlen	56	s
14	185	Baseline			1	441	A1	Zahlen	57	r
14	606	Baseline			0	453	A1	Zahlen	58	r
14	267	Baseline			1	536	A2	Buchstaben	59	s
14	283	Baseline			1	631	A2	Buchstaben	60	r
14	268	Baseline			1	481	A2	Buchstaben	61	r
14	275	Baseline			1	423	A2	Buchstaben	62	r
14	277	Baseline			1	465	A2	Buchstaben	63	r
14	307	Baseline			0	518	A2	Buchstaben	64	r
14	244	Baseline			1	714	A2	Buchstaben	65	r
14	277	Baseline			1	601	A1	Zahlen	66	s
14	375	Baseline			0	735	A1	Zahlen	67	r
14	228	Baseline			1	706	A1	Zahlen	68	r
14	274	Baseline			1	598	A1	Zahlen	69	r
14	326	Baseline			1	528	A2	Buchstaben	70	s
14	283	Baseline			1	527	A2	Buchstaben	71	r
14	272	Baseline			1	548	A2	Buchstaben	72	r
14	262	Baseline			1	667	A2	Buchstaben	73	r
14	280	Baseline			1	516	A2	Buchstaben	74	r
14	292	Baseline			1	415	A2	Buchstaben	75	r
14	432	Baseline			1	669	A2	Buchstaben	76	r
14	209	Baseline			1	504	A2	Buchstaben	77	r
14	339	Baseline			1	589	A1	Zahlen	78	s
14	323	Baseline			1	509	A1	Zahlen	79	r
14	270	Baseline			1	722	A1	Zahlen	80	r
14	261	Baseline			1	618	A1	Zahlen	81	r
14	278	Baseline			1	795	A1	Zahlen	82	r
14	266	Baseline			1	495	A1	Zahlen	83	r
14	411	Baseline			1	561	A1	Zahlen	84	r
14	466	Baseline			1	495	A2	Buchstaben	85	s
14	330	Baseline			0	308	A1	Zahlen	86	s
14	608	Baseline			1	630	A1	Zahlen	87	r
14	700	Baseline			1	592	A2	Buchstaben	88	s
14	285	Baseline			1	593	A2	Buchstaben	89	r
14	384	Baseline			1	576	A2	Buchstaben	90	r
14	257	Baseline			1	542	A1	Zahlen	91	s
14	433	Baseline			1	559	A2	Buchstaben	92	s
14	288	Baseline			1	556	A2	Buchstaben	93	r
14	290	Baseline			1	503	A2	Buchstaben	94	r
14	308	Baseline			1	487	A2	Buchstaben	95	r
14	316	Baseline			0	479	A2	Buchstaben	96	r
14	325	Baseline			1	623	A2	Buchstaben	97	r
14	307	Baseline			1	486	A2	Buchstaben	98	r
14	323	Baseline			1	461	A2	Buchstaben	99	r
14	433	Baseline			1	567	A2	Buchstaben	100	r
14	335	Baseline			1	1242	A2	Buchstaben	101	r
14	311	Baseline			1	498	A2	Buchstaben	102	r
14	292	Baseline			1	479	A2	Buchstaben	103	r
14	332	Baseline			1	590	A2	Buchstaben	104	r
14	302	Baseline			1	561	A2	Buchstaben	105	r
14	376	Baseline			1	520	A2	Buchstaben	106	r
14	347	Baseline			1	612	A2	Buchstaben	107	r
14	297	Baseline			1	540	A2	Buchstaben	108	r
14	269	Baseline			1	474	A2	Buchstaben	109	r
14	535	Baseline			1	449	A1	Zahlen	110	s
14	287	Baseline			1	587	A1	Zahlen	111	r
14	265	Baseline			1	518	A1	Zahlen	112	r
14	247	Baseline			1	637	A1	Zahlen	113	r
14	282	Baseline			1	630	A1	Zahlen	114	r
14	116	Baseline			1	727	A1	Zahlen	115	r
14	359	Baseline			1	688	A1	Zahlen	116	r
14	235	Baseline			1	585	A1	Zahlen	117	r
14	273	Baseline			1	589	A1	Zahlen	118	r
14	250	Baseline			1	463	A1	Zahlen	119	r
14	324	Baseline			1	694	A1	Zahlen	120	r
14	289	Baseline			1	852	A1	Zahlen	121	r
14	224	Baseline			1	631	A1	Zahlen	122	r
14	203	Baseline			1	611	A1	Zahlen	123	r
14	50	Baseline			1	607	A1	Zahlen	124	r
14	349	Baseline			1	847	A1	Zahlen	125	r
14	610	Baseline			1	521	A1	Zahlen	126	r
14	228	Baseline			1	594	A1	Zahlen	127	r
14	208	Baseline			1	623	A1	Zahlen	128	r
14	210	Baseline			1	521	A1	Zahlen	129	r
14	490	Baseline			1	694	A1	Zahlen	130	r
14	280	Baseline			1	516	A1	Zahlen	131	r
14	1525	Baseline			1	848	A1	Zahlen	132	r
14	390	Baseline			1	541	A2	Buchstaben	133	s
14	256	Baseline			1	573	A2	Buchstaben	134	r
14	597	Baseline			1	509	A2	Buchstaben	135	r
14	255	Baseline			1	621	A1	Zahlen	136	s
14	330	Baseline			1	541	A1	Zahlen	137	r
14	245	Baseline			1	667	A1	Zahlen	138	r
14	325	Baseline			1	575	A1	Zahlen	139	r
14	487	Baseline			1	603	A1	Zahlen	140	r
14	419	Baseline			1	569	A1	Zahlen	141	r
14	538	Baseline			1	884	A1	Zahlen	142	r
14	255	Baseline			1	604	A1	Zahlen	143	r
14	268	Baseline			1	905	A1	Zahlen	144	r
14	292	Baseline			1	671	A2	Buchstaben	145	s
14	546	Baseline			1	812	A2	Buchstaben	146	r
14	257	Baseline			1	518	A2	Buchstaben	147	r
14	272	Baseline			1	605	A2	Buchstaben	148	r
14	348	Baseline			1	550	A2	Buchstaben	149	r
14	256	Baseline			1	733	A2	Buchstaben	150	r
14	295	Baseline			1	554	A2	Buchstaben	151	r
14	274	Baseline			1	542	A2	Buchstaben	152	r
14	264	Baseline			1	517	A2	Buchstaben	153	r
14	238	Baseline			1	604	A2	Buchstaben	154	r
14	276	Baseline			1	912	A2	Buchstaben	155	r
14	322	Baseline			1	492	A2	Buchstaben	156	r
14	248	Baseline			1	590	A2	Buchstaben	157	r
14	334	Baseline			1	664	A2	Buchstaben	158	r
14	254	Baseline			1	540	A2	Buchstaben	159	r
14	452	Baseline			1	834	A1	Zahlen	160	s
14	430	Baseline			1	564	A1	Zahlen	161	r
14	252	Baseline			1	530	A1	Zahlen	162	r
14	237	Baseline			1	643	A1	Zahlen	163	r
14	6	Baseline			1	478	A1	Zahlen	164	r
14	247	Baseline			1	469	A1	Zahlen	165	r
14	265	Baseline			1	669	A1	Zahlen	166	r
14	257	Baseline			1	535	A1	Zahlen	167	r
14	250	Baseline			1	638	A2	Buchstaben	168	s
14	297	Baseline			1	941	A1	Zahlen	169	s
14	317	Baseline			1	560	A1	Zahlen	170	r
14	374	Baseline			1	863	A1	Zahlen	171	r
14	268	Baseline			1	480	A2	Buchstaben	172	s
14	316	Baseline			1	615	A2	Buchstaben	173	r
14	260	Baseline			1	552	A2	Buchstaben	174	r
14	259	Baseline			1	440	A2	Buchstaben	175	r
