Subject	TrialType	Choice.RT	Mode	RewN	RSeq	Target.ACC	Target.RT	Task	TaskChoice	TrialNr	Transition
1	1	1117	Baseline	NA	NA	1	594	A2	Buchstaben	1	2
1	1	710	Baseline	NA	NA	1	523	A1	Zahlen	2	2
1	1	830	Baseline	NA	NA	1	531	A2	Buchstaben	3	2
1	1	777	Baseline	NA	NA	0	883	A1	Zahlen	4	2
1	2	1418	Baseline	NA	NA	1	757	A2	Buchstaben	5	2
1	1	921	Baseline	NA	NA	1	625	A1	Zahlen	6	2
1	1	824	Baseline	NA	NA	1	593	A2	Buchstaben	7	2
1	1	693	Baseline	NA	NA	1	684	A2	Buchstaben	8	1
1	1	536	Baseline	NA	NA	0	353	A2	Buchstaben	9	1
1	1	886	Baseline	NA	NA	1	575	A1	Zahlen	10	2
1	1	561	Baseline	NA	NA	1	544	A2	Buchstaben	11	2
1	2	201	Baseline	NA	NA	1	708	A1	Zahlen	12	2
1	1	587	Baseline	NA	NA	1	740	A2	Buchstaben	13	2
1	1	603	Baseline	NA	NA	1	530	A2	Buchstaben	14	1
1	1	520	Baseline	NA	NA	1	772	A2	Buchstaben	15	1
1	1	659	Baseline	NA	NA	1	541	A1	Zahlen	16	2
1	1	646	Baseline	NA	NA	1	573	A1	Zahlen	17	1
1	2	662	Baseline	NA	NA	1	520	A2	Buchstaben	18	2
1	1	995	Baseline	NA	NA	1	512	A1	Zahlen	19	2
1	1	945	Baseline	NA	NA	1	620	A1	Zahlen	20	1
1	1	1048	Baseline	NA	NA	0	527	A2	Buchstaben	21	2
1	1	675	Baseline	NA	NA	1	1607	A2	Buchstaben	22	1
1	1	706	Baseline	NA	NA	1	564	A1	Zahlen	23	2
1	2	837	Baseline	NA	NA	1	546	A2	Buchstaben	24	2
1	1	600	Baseline	NA	NA	1	548	A1	Zahlen	25	2
1	1	573	Baseline	NA	NA	1	636	A2	Buchstaben	26	2
1	1	1197	Baseline	NA	NA	1	731	A2	Buchstaben	27	1
1	1	684	Baseline	NA	NA	1	587	A2	Buchstaben	28	1
1	2	717	Baseline	NA	NA	1	737	A1	Zahlen	29	2
1	1	635	Baseline	NA	NA	1	631	A1	Zahlen	30	1
1	1	680	Baseline	NA	NA	1	620	A1	Zahlen	31	1
1	1	571	Baseline	NA	NA	1	530	A1	Zahlen	32	1
1	1	453	Baseline	NA	NA	1	652	A2	Buchstaben	33	2
1	1	665	Baseline	NA	NA	1	572	A1	Zahlen	34	2
1	1	561	Baseline	NA	NA	1	672	A2	Buchstaben	35	2
1	2	666	Baseline	NA	NA	1	571	A1	Zahlen	36	2
1	1	591	Baseline	NA	NA	1	763	A1	Zahlen	37	1
1	1	810	Baseline	NA	NA	1	505	A1	Zahlen	38	1
1	1	800	Baseline	NA	NA	0	732	A2	Buchstaben	39	2
1	1	1130	Baseline	NA	NA	1	610	A2	Buchstaben	40	1
1	2	723	Baseline	NA	NA	1	610	A1	Zahlen	41	2
1	1	606	Baseline	NA	NA	1	589	A1	Zahlen	42	1
1	1	934	Baseline	NA	NA	1	576	A2	Buchstaben	43	2
1	1	900	Baseline	NA	NA	1	662	A2	Buchstaben	44	1
1	1	418	Baseline	NA	NA	1	603	A2	Buchstaben	45	1
1	1	642	Baseline	NA	NA	1	569	A1	Zahlen	46	2
1	1	570	Baseline	NA	NA	1	529	A1	Zahlen	47	1
1	2	525	Baseline	NA	NA	1	571	A2	Buchstaben	48	2
1	1	935	Baseline	NA	NA	1	553	A1	Zahlen	49	2
1	1	957	Baseline	NA	NA	1	610	A2	Buchstaben	50	2
1	1	718	Baseline	NA	NA	1	634	A2	Buchstaben	51	1
1	1	374	Baseline	NA	NA	0	477	A1	Zahlen	52	2
1	2	645	Baseline	NA	NA	1	556	A2	Buchstaben	53	2
1	1	701	Baseline	NA	NA	1	727	A1	Zahlen	54	2
1	1	616	Baseline	NA	NA	1	578	A2	Buchstaben	55	2
1	1	1080	Baseline	NA	NA	1	685	A1	Zahlen	56	2
1	1	586	Baseline	NA	NA	1	595	A2	Buchstaben	57	2
1	2	497	Baseline	NA	NA	1	570	A2	Buchstaben	58	1
1	1	509	Baseline	NA	NA	1	537	A2	Buchstaben	59	1
1	1	581	Baseline	NA	NA	1	534	A1	Zahlen	60	2
1	1	378	Baseline	NA	NA	1	579	A2	Buchstaben	61	2
1	2	484	Baseline	NA	NA	1	531	A2	Buchstaben	62	1
1	1	457	Baseline	NA	NA	1	571	A2	Buchstaben	63	1
1	1	422	Baseline	NA	NA	1	543	A2	Buchstaben	64	1
1	1	595	Baseline	NA	NA	1	567	A2	Buchstaben	65	1
1	1	592	Baseline	NA	NA	1	564	A1	Zahlen	66	2
1	1	395	Baseline	NA	NA	1	526	A2	Buchstaben	67	2
1	2	432	Baseline	NA	NA	1	483	A2	Buchstaben	68	1
1	1	588	Baseline	NA	NA	1	512	A2	Buchstaben	69	1
1	1	559	Baseline	NA	NA	0	587	A1	Zahlen	70	2
1	1	1497	Baseline	NA	NA	1	884	A1	Zahlen	71	1
1	1	584	Baseline	NA	NA	1	602	A1	Zahlen	72	1
1	2	715	Baseline	NA	NA	1	591	A1	Zahlen	73	1
1	1	667	Baseline	NA	NA	1	469	A1	Zahlen	74	1
1	1	523	Baseline	NA	NA	1	650	A2	Buchstaben	75	2
1	1	435	Baseline	NA	NA	1	511	A2	Buchstaben	76	1
1	2	416	Baseline	NA	NA	1	569	A2	Buchstaben	77	1
1	1	756	Baseline	NA	NA	1	473	A1	Zahlen	78	2
1	1	599	Baseline	NA	NA	1	587	A1	Zahlen	79	1
1	1	540	Baseline	NA	NA	1	526	A2	Buchstaben	80	2
1	1	540	Baseline	NA	NA	1	485	A1	Zahlen	81	2
1	1	589	Baseline	NA	NA	1	521	A1	Zahlen	82	1
1	2	504	Baseline	NA	NA	1	458	A1	Zahlen	83	1
1	1	818	Baseline	NA	NA	1	564	A2	Buchstaben	84	2
1	1	517	Baseline	NA	NA	1	521	A2	Buchstaben	85	1
1	1	658	Baseline	NA	NA	1	516	A1	Zahlen	86	2
1	1	490	Baseline	NA	NA	1	433	A1	Zahlen	87	1
1	2	420	Baseline	NA	NA	1	477	A1	Zahlen	88	1
1	1	470	Baseline	NA	NA	1	586	A1	Zahlen	89	1
1	1	923	Baseline	NA	NA	1	578	A2	Buchstaben	90	2
1	1	503	Baseline	NA	NA	1	472	A1	Zahlen	91	2
1	1	502	Baseline	NA	NA	1	543	A2	Buchstaben	92	2
1	1	523	Baseline	NA	NA	1	506	A1	Zahlen	93	2
1	2	525	Baseline	NA	NA	1	412	A1	Zahlen	94	1
1	1	506	Baseline	NA	NA	0	339	A1	Zahlen	95	1
1	1	675	Baseline	NA	NA	1	511	A1	Zahlen	96	1
1	1	1131	Baseline	NA	NA	1	555	A2	Buchstaben	97	2
1	1	562	Baseline	NA	NA	1	592	A2	Buchstaben	98	1
1	2	508	Baseline	NA	NA	1	456	A1	Zahlen	99	2
1	1	868	Baseline	NA	NA	1	504	A2	Buchstaben	100	2
1	1	956	Baseline	NA	NA	1	585	A2	Buchstaben	101	1
1	1	794	Baseline	NA	NA	1	495	A1	Zahlen	102	2
1	1	602	Baseline	NA	NA	1	553	A1	Zahlen	103	1
1	1	567	Baseline	NA	NA	0	558	A2	Buchstaben	104	2
1	2	314	Baseline	NA	NA	1	629	A1	Zahlen	105	2
1	1	564	Baseline	NA	NA	1	602	A1	Zahlen	106	1
1	1	613	Baseline	NA	NA	1	692	A2	Buchstaben	107	2
1	1	541	Baseline	NA	NA	1	592	A1	Zahlen	108	2
1	2	594	Baseline	NA	NA	1	567	A1	Zahlen	109	1
1	1	637	Baseline	NA	NA	1	553	A1	Zahlen	110	1
1	1	946	Baseline	NA	NA	1	581	A2	Buchstaben	111	2
1	1	1040	Baseline	NA	NA	1	632	A2	Buchstaben	112	1
1	1	1036	Baseline	NA	NA	1	617	A2	Buchstaben	113	1
1	1	763	Baseline	NA	NA	0	610	A2	Buchstaben	114	1
1	1	874	Baseline	NA	NA	1	607	A2	Buchstaben	115	1
1	2	504	Baseline	NA	NA	1	625	A1	Zahlen	116	2
1	1	1147	Baseline	NA	NA	0	768	A2	Buchstaben	117	2
1	1	638	Baseline	NA	NA	1	602	A1	Zahlen	118	2
1	1	660	Baseline	NA	NA	1	533	A1	Zahlen	119	1
1	1	566	Baseline	NA	NA	1	597	A1	Zahlen	120	1
1	1	1126	Baseline	NA	NA	1	662	A2	Buchstaben	121	2
1	2	637	Baseline	NA	NA	1	649	A2	Buchstaben	122	1
1	1	581	Baseline	NA	NA	1	534	A1	Zahlen	123	2
1	1	922	Baseline	NA	NA	1	650	A2	Buchstaben	124	2
1	1	851	Baseline	NA	NA	1	650	A2	Buchstaben	125	1
1	1	601	Baseline	NA	NA	1	725	A2	Buchstaben	126	1
1	1	543	Baseline	NA	NA	1	640	A1	Zahlen	127	2
1	2	628	Baseline	NA	NA	1	557	A1	Zahlen	128	1
1	1	513	Baseline	NA	NA	1	717	A1	Zahlen	129	1
1	1	966	Baseline	NA	NA	1	429	A2	Buchstaben	130	2
1	1	1326	Baseline	NA	NA	1	1374	A2	Buchstaben	131	1
1	1	655	Baseline	NA	NA	1	696	A1	Zahlen	132	2
1	1	738	Baseline	NA	NA	1	699	A1	Zahlen	133	1
1	2	605	Baseline	NA	NA	1	556	A1	Zahlen	134	1
1	1	615	Baseline	NA	NA	1	561	A1	Zahlen	135	1
1	1	530	Baseline	NA	NA	1	449	A1	Zahlen	136	1
1	1	468	Baseline	NA	NA	1	400	A1	Zahlen	137	1
1	1	694	Baseline	NA	NA	0	312	A2	Buchstaben	138	2
1	2	567	Baseline	NA	NA	1	598	A1	Zahlen	139	2
1	1	1034	Baseline	NA	NA	1	583	A2	Buchstaben	140	2
1	1	995	Baseline	NA	NA	1	528	A2	Buchstaben	141	1
1	1	1014	Baseline	NA	NA	1	585	A2	Buchstaben	142	1
1	1	543	Baseline	NA	NA	1	593	A1	Zahlen	143	2
1	1	578	Baseline	NA	NA	1	731	A1	Zahlen	144	1
1	2	416	Baseline	NA	NA	1	609	A1	Zahlen	145	1
1	1	663	Baseline	NA	NA	1	617	A1	Zahlen	146	1
1	1	522	Baseline	NA	NA	1	481	A1	Zahlen	147	1
1	1	772	Baseline	NA	NA	1	636	A2	Buchstaben	148	2
1	1	506	Baseline	NA	NA	1	483	A1	Zahlen	149	2
1	1	745	Baseline	NA	NA	0	507	A2	Buchstaben	150	2
1	2	561	Baseline	NA	NA	1	613	A2	Buchstaben	151	1
1	1	771	Baseline	NA	NA	1	651	A2	Buchstaben	152	1
1	1	572	Baseline	NA	NA	1	587	A2	Buchstaben	153	1
1	1	1160	Baseline	NA	NA	1	776	A2	Buchstaben	154	1
1	1	631	Baseline	NA	NA	1	491	A2	Buchstaben	155	1
1	1	676	Baseline	NA	NA	1	529	A1	Zahlen	156	2
1	2	666	Baseline	NA	NA	1	491	A2	Buchstaben	157	2
1	1	876	Baseline	NA	NA	0	441	A1	Zahlen	158	2
1	1	1262	Baseline	NA	NA	1	865	A1	Zahlen	159	1
1	1	643	Baseline	NA	NA	0	490	A1	Zahlen	160	1
1	1	818	Baseline	NA	NA	1	580	A1	Zahlen	161	1
1	2	608	Baseline	NA	NA	1	535	A1	Zahlen	162	1
1	1	963	Baseline	NA	NA	1	338	A2	Buchstaben	163	2
1	1	1363	Baseline	NA	NA	1	548	A2	Buchstaben	164	1
1	1	797	Baseline	NA	NA	1	561	A1	Zahlen	165	2
1	1	610	Baseline	NA	NA	1	481	A1	Zahlen	166	1
1	2	469	Baseline	NA	NA	1	496	A1	Zahlen	167	1
1	1	508	Baseline	NA	NA	1	504	A1	Zahlen	168	1
1	1	718	Baseline	NA	NA	1	715	A2	Buchstaben	169	2
1	1	601	Baseline	NA	NA	1	576	A1	Zahlen	170	2
1	1	796	Baseline	NA	NA	1	521	A2	Buchstaben	171	2
1	1	1084	Baseline	NA	NA	1	532	A2	Buchstaben	172	1
1	1	749	Baseline	NA	NA	0	562	A1	Zahlen	173	2
1	1	575	Baseline	NA	NA	1	713	A1	Zahlen	174	1
1	1	484	Test	2	0	1	770	A2	Buchstaben	1	2
1	1	769	Test	2	3	1	568	A1	Zahlen	2	2
1	1	746	Test	1	4	0	307	A1	Zahlen	3	1
1	2	504	Test	2	2	1	481	A1	Zahlen	4	1
1	1	797	Test	1	4	1	506	A2	Buchstaben	5	2
1	1	384	Test	1	1	1	481	A2	Buchstaben	6	1
1	1	383	Test	1	1	1	568	A2	Buchstaben	7	1
1	2	458	Test	2	2	1	475	A2	Buchstaben	8	1
1	1	372	Test	1	4	0	386	A1	Zahlen	9	2
1	1	375	Test	2	2	0	424	A2	Buchstaben	10	2
1	1	525	Test	2	3	1	620	A1	Zahlen	11	2
1	2	587	Test	2	3	1	428	A2	Buchstaben	12	2
1	1	586	Test	1	4	1	484	A1	Zahlen	13	2
1	1	458	Test	1	1	1	483	A2	Buchstaben	14	2
1	1	417	Test	2	2	1	466	A1	Zahlen	15	2
1	2	473	Test	2	3	1	476	A2	Buchstaben	16	2
1	1	517	Test	1	4	0	417	A1	Zahlen	17	2
1	1	439	Test	1	1	1	498	A1	Zahlen	18	1
1	1	441	Test	1	1	1	556	A1	Zahlen	19	1
1	1	398	Test	2	2	1	408	A2	Buchstaben	20	2
1	1	349	Test	1	4	1	468	A2	Buchstaben	21	1
1	2	390	Test	2	2	1	377	A2	Buchstaben	22	1
1	1	469	Test	2	3	1	536	A1	Zahlen	23	2
1	1	372	Test	1	4	1	474	A1	Zahlen	24	1
1	1	350	Test	2	2	1	394	A2	Buchstaben	25	2
1	1	363	Test	2	3	1	441	A1	Zahlen	26	2
1	2	351	Test	2	3	1	539	A2	Buchstaben	27	2
1	1	396	Test	1	4	1	439	A2	Buchstaben	28	1
1	1	422	Test	1	1	1	455	A2	Buchstaben	29	1
1	1	456	Test	2	2	1	569	A1	Zahlen	30	2
1	1	346	Test	1	4	1	371	A2	Buchstaben	31	2
1	2	363	Test	2	2	0	442	A2	Buchstaben	32	1
1	1	298	Test	1	4	1	442	A1	Zahlen	33	2
1	1	339	Test	2	2	1	508	A2	Buchstaben	34	2
1	1	333	Test	2	3	1	459	A2	Buchstaben	35	1
1	1	434	Test	2	3	1	430	A2	Buchstaben	36	1
1	1	382	Test	2	3	1	455	A2	Buchstaben	37	1
1	2	376	Test	2	3	0	425	A2	Buchstaben	38	1
1	1	305	Test	1	4	1	514	A1	Zahlen	39	2
1	1	387	Test	1	1	1	516	A1	Zahlen	40	1
1	1	325	Test	1	1	1	467	A2	Buchstaben	41	2
1	1	415	Test	1	1	1	480	A2	Buchstaben	42	1
1	2	409	Test	2	2	0	399	A2	Buchstaben	43	1
1	1	440	Test	2	3	1	460	A1	Zahlen	44	2
1	1	380	Test	2	3	1	477	A2	Buchstaben	45	2
1	1	443	Test	1	4	1	458	A2	Buchstaben	46	1
1	1	463	Test	1	1	1	513	A1	Zahlen	47	2
1	2	369	Test	2	2	1	440	A2	Buchstaben	48	2
1	1	411	Test	2	3	1	497	A1	Zahlen	49	2
1	1	331	Test	2	3	1	433	A2	Buchstaben	50	2
1	1	356	Test	1	4	1	464	A2	Buchstaben	51	1
1	1	404	Test	2	2	1	378	A1	Zahlen	52	2
1	1	422	Test	2	3	1	423	A1	Zahlen	53	1
1	2	360	Test	2	3	1	443	A2	Buchstaben	54	2
1	1	439	Test	2	3	1	451	A1	Zahlen	55	2
1	1	507	Test	2	3	1	503	A1	Zahlen	56	1
1	1	374	Test	2	3	1	335	A2	Buchstaben	57	2
1	2	421	Test	2	3	0	438	A1	Zahlen	58	2
1	1	345	Test	1	4	1	505	A1	Zahlen	59	1
1	1	379	Test	1	1	1	355	A1	Zahlen	60	1
1	1	420	Test	2	2	0	381	A2	Buchstaben	61	2
1	1	456	Test	2	3	1	553	A1	Zahlen	62	2
1	1	386	Test	2	3	1	395	A1	Zahlen	63	1
1	2	412	Test	2	3	1	466	A2	Buchstaben	64	2
1	1	395	Test	1	4	1	407	A2	Buchstaben	65	1
1	1	415	Test	1	1	1	424	A2	Buchstaben	66	1
1	1	404	Test	2	2	1	482	A2	Buchstaben	67	1
1	1	342	Test	1	4	1	535	A2	Buchstaben	68	1
1	1	416	Test	2	2	1	449	A2	Buchstaben	69	1
1	2	341	Test	2	3	1	397	A2	Buchstaben	70	1
1	1	326	Test	1	4	1	460	A2	Buchstaben	71	1
1	1	464	Test	1	1	1	433	A1	Zahlen	72	2
1	1	351	Test	1	1	1	451	A2	Buchstaben	73	2
1	1	358	Test	1	1	1	497	A2	Buchstaben	74	1
1	1	499	Test	1	1	1	363	A1	Zahlen	75	2
1	2	361	Test	2	2	1	440	A2	Buchstaben	76	2
1	1	395	Test	2	3	1	455	A2	Buchstaben	77	1
1	1	397	Test	2	3	1	521	A2	Buchstaben	78	1
1	1	418	Test	1	4	0	347	A1	Zahlen	79	2
1	1	368	Test	2	2	1	478	A2	Buchstaben	80	2
1	2	423	Test	2	3	1	496	A2	Buchstaben	81	1
1	1	380	Test	1	4	1	469	A2	Buchstaben	82	1
1	1	379	Test	1	1	1	532	A2	Buchstaben	83	1
1	1	405	Test	1	1	1	404	A1	Zahlen	84	2
1	1	298	Test	1	1	1	474	A2	Buchstaben	85	2
1	2	379	Test	2	2	0	356	A2	Buchstaben	86	1
1	1	367	Test	1	4	1	421	A2	Buchstaben	87	1
1	1	579	Test	1	1	0	404	A1	Zahlen	88	2
1	1	380	Test	2	2	1	389	A1	Zahlen	89	1
1	1	459	Test	2	3	1	412	A2	Buchstaben	90	2
1	1	331	Test	2	3	1	497	A2	Buchstaben	91	1
1	2	429	Test	2	3	1	440	A2	Buchstaben	92	1
1	1	335	Test	1	4	1	472	A2	Buchstaben	93	1
1	1	318	Test	1	1	1	441	A2	Buchstaben	94	1
1	1	768	Test	2	2	1	479	A1	Zahlen	95	2
1	1	357	Test	1	4	1	457	A2	Buchstaben	96	2
1	1	644	Test	2	2	1	379	A1	Zahlen	97	2
1	2	353	Test	2	3	1	493	A2	Buchstaben	98	2
1	1	360	Test	2	3	1	404	A2	Buchstaben	99	1
1	1	377	Test	2	3	1	411	A2	Buchstaben	100	1
1	1	319	Test	2	3	1	506	A1	Zahlen	101	2
1	1	400	Test	1	4	1	443	A2	Buchstaben	102	2
1	2	460	Test	2	2	1	525	A2	Buchstaben	103	1
1	1	339	Test	1	4	1	420	A1	Zahlen	104	2
1	1	389	Test	1	1	1	457	A1	Zahlen	105	1
1	1	340	Test	1	1	0	565	A1	Zahlen	106	1
1	1	400	Test	1	1	1	476	A2	Buchstaben	107	2
1	2	413	Test	2	2	1	555	A2	Buchstaben	108	1
1	1	434	Test	2	3	1	485	A1	Zahlen	109	2
1	1	358	Test	2	3	1	458	A1	Zahlen	110	1
1	1	326	Test	1	4	1	524	A2	Buchstaben	111	2
1	1	551	Test	1	1	1	459	A1	Zahlen	112	2
1	1	327	Test	2	2	1	469	A2	Buchstaben	113	2
1	2	342	Test	2	3	1	463	A2	Buchstaben	114	1
1	1	661	Test	1	4	1	463	A2	Buchstaben	115	1
1	1	395	Test	1	1	1	374	A1	Zahlen	116	2
1	1	407	Test	1	1	1	541	A2	Buchstaben	117	2
1	1	382	Test	2	2	1	343	A2	Buchstaben	118	1
1	1	392	Test	1	4	1	556	A2	Buchstaben	119	1
1	2	349	Test	2	2	1	590	A2	Buchstaben	120	1
1	1	441	Test	2	3	1	541	A2	Buchstaben	121	1
1	1	462	Test	2	3	1	503	A1	Zahlen	122	2
1	1	344	Test	2	3	1	425	A2	Buchstaben	123	2
1	1	383	Test	2	3	1	464	A1	Zahlen	124	2
1	2	383	Test	2	3	1	352	A2	Buchstaben	125	2
1	1	499	Test	2	3	1	460	A1	Zahlen	126	2
1	1	360	Test	2	3	0	404	A2	Buchstaben	127	2
1	1	443	Test	1	4	1	393	A1	Zahlen	128	2
1	2	391	Test	2	2	1	395	A2	Buchstaben	129	2
1	1	132	Test	2	3	1	705	A2	Buchstaben	130	1
1	1	400	Test	2	3	1	452	A2	Buchstaben	131	1
1	1	394	Test	2	3	1	334	A1	Zahlen	132	2
1	1	388	Test	1	4	1	477	A1	Zahlen	133	1
1	2	315	Test	2	2	1	438	A2	Buchstaben	134	2
1	1	418	Test	2	3	1	387	A1	Zahlen	135	2
1	1	342	Test	2	3	1	383	A2	Buchstaben	136	2
1	1	349	Test	2	3	1	321	A1	Zahlen	137	2
1	1	362	Test	2	3	1	328	A2	Buchstaben	138	2
1	1	379	Test	1	4	1	468	A2	Buchstaben	139	1
1	2	533	Test	2	2	1	364	A2	Buchstaben	140	1
1	1	383	Test	2	3	0	312	A2	Buchstaben	141	1
1	1	502	Test	2	3	1	367	A1	Zahlen	142	2
1	1	352	Test	1	4	1	435	A2	Buchstaben	143	2
1	1	377	Test	1	1	1	482	A2	Buchstaben	144	1
1	2	363	Test	2	2	1	362	A2	Buchstaben	145	1
1	1	490	Test	2	3	0	313	A1	Zahlen	146	2
1	1	342	Test	2	3	1	431	A2	Buchstaben	147	2
1	1	336	Test	2	3	1	481	A2	Buchstaben	148	1
1	1	554	Test	2	3	1	414	A1	Zahlen	149	2
1	2	372	Test	2	3	1	475	A2	Buchstaben	150	2
1	1	494	Test	2	3	1	349	A1	Zahlen	151	2
1	1	504	Test	1	4	1	481	A1	Zahlen	152	1
1	1	525	Test	1	1	1	475	A1	Zahlen	153	1
1	1	543	Test	1	1	1	376	A1	Zahlen	154	1
1	1	385	Test	2	2	0	354	A2	Buchstaben	155	2
1	1	377	Test	2	3	1	426	A2	Buchstaben	156	1
1	2	417	Test	2	3	1	474	A2	Buchstaben	157	1
1	1	395	Test	2	3	1	454	A2	Buchstaben	158	1
1	1	365	Test	2	3	1	398	A2	Buchstaben	159	1
1	1	420	Test	2	3	1	365	A1	Zahlen	160	2
1	1	341	Test	2	3	1	1238	A2	Buchstaben	161	2
1	1	452	Test	2	3	1	402	A1	Zahlen	162	2
1	1	392	Test	2	3	1	444	A2	Buchstaben	163	2
1	2	314	Test	2	3	1	606	A2	Buchstaben	164	1
1	1	431	Test	1	4	1	355	A1	Zahlen	165	2
1	1	502	Test	2	2	1	447	A1	Zahlen	166	1
1	1	366	Test	2	3	1	508	A2	Buchstaben	167	2
1	1	464	Test	2	3	1	393	A1	Zahlen	168	2
1	2	372	Test	2	3	1	498	A2	Buchstaben	169	2
1	1	374	Test	1	4	1	412	A2	Buchstaben	170	1
1	1	450	Test	2	2	1	457	A2	Buchstaben	171	1
1	1	351	Test	1	4	1	427	A2	Buchstaben	172	1
1	1	358	Test	1	1	1	434	A2	Buchstaben	173	1
1	2	312	Test	2	2	1	435	A2	Buchstaben	174	1
1	1	492	Test	1	4	0	307	A1	Zahlen	175	2
1	1	408	Test	1	1	1	446	A2	Buchstaben	176	2
1	1	463	Test	2	2	1	440	A1	Zahlen	177	2
1	1	457	Test	2	3	1	442	A1	Zahlen	178	1
1	1	422	Test	2	3	1	583	A2	Buchstaben	179	2
1	2	456	Test	2	3	1	505	A2	Buchstaben	180	1
1	1	328	Test	2	3	1	430	A2	Buchstaben	181	1
1	1	398	Test	1	4	1	482	A1	Zahlen	182	2
1	1	304	Test	2	2	1	425	A2	Buchstaben	183	2
1	2	327	Test	2	3	1	501	A2	Buchstaben	184	1
1	1	358	Test	1	4	1	930	A2	Buchstaben	185	1
1	1	396	Test	2	2	1	432	A2	Buchstaben	186	1
1	1	507	Test	2	3	1	388	A1	Zahlen	187	2
1	1	506	Test	2	3	1	580	A1	Zahlen	188	1
1	2	410	Test	2	3	1	441	A2	Buchstaben	189	2
1	1	476	Test	1	4	1	424	A1	Zahlen	190	2
1	1	505	Test	2	2	1	418	A1	Zahlen	191	1
1	1	387	Test	2	3	1	476	A1	Zahlen	192	1
1	1	405	Test	2	3	1	427	A2	Buchstaben	193	2
1	1	385	Test	2	3	1	434	A1	Zahlen	194	2
1	2	371	Test	2	3	1	498	A2	Buchstaben	195	2
1	1	416	Test	1	4	1	385	A1	Zahlen	196	2
1	1	367	Test	1	1	1	517	A2	Buchstaben	197	2
1	1	382	Test	1	1	0	431	A2	Buchstaben	198	1
1	1	386	Test	1	1	1	475	A2	Buchstaben	199	1
1	2	380	Test	2	2	1	477	A2	Buchstaben	200	1
1	1	414	Test	1	4	1	596	A2	Buchstaben	201	1
1	1	318	Test	1	1	1	481	A2	Buchstaben	202	1
1	1	626	Test	1	1	1	388	A1	Zahlen	203	2
1	1	527	Test	1	1	1	502	A1	Zahlen	204	1
1	1	484	Test	1	1	1	403	A1	Zahlen	205	1
1	2	350	Test	2	2	1	490	A2	Buchstaben	206	2
1	1	451	Test	1	4	1	313	A1	Zahlen	207	2
1	1	446	Test	2	2	1	460	A1	Zahlen	208	1
1	1	341	Test	2	3	1	478	A2	Buchstaben	209	2
1	1	391	Test	2	3	0	323	A1	Zahlen	210	2
1	2	411	Test	2	3	1	449	A2	Buchstaben	211	2
1	1	493	Test	1	4	1	412	A2	Buchstaben	212	1
1	1	495	Test	2	2	1	752	A2	Buchstaben	213	1
1	1	327	Test	2	3	0	389	A2	Buchstaben	214	1
1	1	472	Test	1	4	1	459	A1	Zahlen	215	2
1	2	423	Test	2	2	1	496	A2	Buchstaben	216	2
1	1	391	Test	2	3	1	506	A2	Buchstaben	217	1
1	1	358	Test	1	4	1	521	A2	Buchstaben	218	1
1	1	357	Test	1	1	1	625	A2	Buchstaben	219	1
1	1	314	Test	1	1	1	581	A2	Buchstaben	220	1
1	2	441	Test	2	2	1	493	A2	Buchstaben	221	1
1	1	489	Test	2	3	1	367	A1	Zahlen	222	2
1	1	464	Test	2	3	1	329	A1	Zahlen	223	1
1	1	487	Test	2	3	1	342	A1	Zahlen	224	1
1	1	361	Test	1	4	1	501	A2	Buchstaben	225	2
1	1	552	Test	1	1	1	316	A1	Zahlen	226	2
1	1	434	Test	1	1	1	566	A1	Zahlen	227	1
1	2	402	Test	2	2	1	525	A2	Buchstaben	228	2
1	1	532	Test	2	3	0	394	A1	Zahlen	229	2
1	1	472	Test	2	3	1	380	A1	Zahlen	230	1
1	1	415	Test	2	3	1	421	A2	Buchstaben	231	2
1	1	518	Test	2	3	1	410	A1	Zahlen	232	2
1	2	499	Test	2	3	1	516	A2	Buchstaben	233	2
1	1	671	Test	1	4	1	349	A1	Zahlen	234	2
1	1	404	Test	2	2	0	963	A2	Buchstaben	235	2
1	1	364	Test	1	4	1	474	A2	Buchstaben	236	1
1	1	534	Test	1	1	1	557	A1	Zahlen	237	2
1	1	574	Test	1	1	1	381	A1	Zahlen	238	1
1	2	443	Test	2	2	1	441	A2	Buchstaben	239	2
1	1	517	Test	2	3	1	536	A1	Zahlen	240	2
1	1	503	Test	1	4	1	344	A1	Zahlen	241	1
1	1	409	Test	1	1	1	423	A2	Buchstaben	242	2
1	1	389	Test	1	1	1	769	A2	Buchstaben	243	1
1	2	432	Test	2	2	1	468	A2	Buchstaben	244	1
1	1	631	Test	2	3	1	372	A1	Zahlen	245	2
1	1	412	Test	2	3	1	515	A2	Buchstaben	246	2
1	1	366	Test	1	4	1	405	A2	Buchstaben	247	1
1	1	464	Test	1	1	1	385	A1	Zahlen	248	2
1	1	557	Test	1	1	0	441	A1	Zahlen	249	1
1	2	481	Test	2	2	1	440	A2	Buchstaben	250	2
1	1	401	Test	2	3	1	404	A2	Buchstaben	251	1
1	1	496	Test	1	4	1	393	A1	Zahlen	252	2
1	1	410	Test	1	1	1	416	A2	Buchstaben	253	2
1	2	414	Test	2	2	1	357	A2	Buchstaben	254	1
1	1	339	Test	2	3	1	452	A2	Buchstaben	255	1
1	1	490	Test	2	3	1	369	A1	Zahlen	256	2
1	1	380	Test	2	3	1	397	A2	Buchstaben	257	2
1	1	331	Test	2	3	1	393	A2	Buchstaben	258	1
1	2	322	Test	2	3	1	478	A2	Buchstaben	259	1
1	1	351	Test	1	4	1	426	A2	Buchstaben	260	1
1	1	362	Test	2	2	0	368	A2	Buchstaben	261	1
1	1	328	Test	2	3	1	470	A2	Buchstaben	262	1
1	1	522	Test	1	4	1	377	A1	Zahlen	263	2
1	1	455	Test	2	2	1	472	A2	Buchstaben	264	2
1	2	398	Test	2	3	1	490	A2	Buchstaben	265	1
1	1	525	Test	1	4	1	292	A1	Zahlen	266	2
1	1	367	Test	1	1	1	445	A2	Buchstaben	267	2
1	1	457	Test	2	2	0	330	A1	Zahlen	268	2
1	1	632	Test	1	4	1	420	A1	Zahlen	269	1
1	1	343	Test	2	2	1	480	A2	Buchstaben	270	2
1	2	372	Test	2	3	1	426	A2	Buchstaben	271	1
1	1	483	Test	1	4	1	313	A1	Zahlen	272	2
1	1	359	Test	1	1	1	483	A2	Buchstaben	273	2
1	1	569	Test	2	2	0	352	A1	Zahlen	274	2
1	1	541	Test	1	4	1	374	A1	Zahlen	275	1
1	1	541	Test	1	1	0	294	A1	Zahlen	276	1
1	1	368	Test	1	1	1	422	A2	Buchstaben	277	2
1	2	423	Test	2	2	1	496	A2	Buchstaben	278	1
1	1	391	Test	2	3	1	514	A2	Buchstaben	279	1
1	1	491	Test	1	4	1	378	A1	Zahlen	280	2
1	1	509	Test	1	1	1	497	A1	Zahlen	281	1
1	1	565	Test	1	1	0	412	A1	Zahlen	282	1
1	2	406	Test	2	2	1	436	A2	Buchstaben	283	2
1	1	488	Test	2	3	0	391	A1	Zahlen	284	2
1	1	489	Test	1	4	1	672	A2	Buchstaben	285	2
1	1	552	Test	1	1	1	436	A1	Zahlen	286	2
1	1	376	Test	2	2	1	434	A2	Buchstaben	287	2
1	1	426	Test	2	3	1	595	A2	Buchstaben	288	1
1	2	495	Test	2	3	1	448	A2	Buchstaben	289	1
1	1	467	Test	1	4	1	455	A1	Zahlen	290	2
1	1	416	Test	1	1	1	465	A2	Buchstaben	291	2
1	1	359	Test	2	2	1	459	A2	Buchstaben	292	1
1	1	399	Test	2	3	1	442	A2	Buchstaben	293	1
1	1	515	Test	2	3	1	415	A1	Zahlen	294	2
1	1	480	Test	2	3	1	468	A1	Zahlen	295	1
1	2	370	Test	2	3	1	384	A2	Buchstaben	296	2
1	1	313	Test	2	3	1	445	A2	Buchstaben	297	1
1	1	419	Test	2	3	0	444	A1	Zahlen	298	2
1	1	485	Test	2	3	1	539	A1	Zahlen	299	1
1	1	460	Test	1	4	1	517	A2	Buchstaben	300	2
1	2	473	Test	2	2	1	469	A2	Buchstaben	301	1
1	1	451	Test	1	4	1	458	A1	Zahlen	302	2
1	1	493	Test	1	1	1	452	A1	Zahlen	303	1
1	1	509	Test	1	1	1	385	A1	Zahlen	304	1
1	1	393	Test	2	2	1	405	A2	Buchstaben	305	2
1	1	454	Test	2	3	1	396	A1	Zahlen	306	2
1	1	344	Test	1	4	1	409	A2	Buchstaben	307	2
1	2	327	Test	2	2	1	453	A2	Buchstaben	308	1
1	1	339	Test	2	3	1	444	A2	Buchstaben	309	1
1	1	474	Test	1	4	1	694	A1	Zahlen	310	2
1	1	418	Test	2	2	1	434	A1	Zahlen	311	1
1	1	403	Test	2	3	1	467	A2	Buchstaben	312	2
1	1	416	Test	2	3	1	441	A1	Zahlen	313	2
1	2	408	Test	2	3	1	454	A2	Buchstaben	314	2
1	1	404	Test	2	3	1	490	A1	Zahlen	315	2
1	1	369	Test	1	4	1	439	A1	Zahlen	316	1
1	1	405	Test	2	2	1	515	A1	Zahlen	317	1
1	1	495	Test	1	4	1	449	A1	Zahlen	318	1
1	1	423	Test	1	1	1	496	A1	Zahlen	319	1
1	1	473	Test	2	2	1	597	A1	Zahlen	320	1
1	2	310	Test	2	3	1	417	A2	Buchstaben	321	2
1	1	437	Test	1	4	1	353	A1	Zahlen	322	2
1	1	409	Test	1	1	1	512	A2	Buchstaben	323	2
1	1	438	Test	2	2	1	474	A1	Zahlen	324	2
1	1	547	Test	2	3	1	348	A1	Zahlen	325	1
1	2	421	Test	2	3	1	454	A2	Buchstaben	326	2
1	1	367	Test	1	4	1	445	A2	Buchstaben	327	1
1	1	481	Test	1	1	1	405	A2	Buchstaben	328	1
1	1	395	Test	1	1	1	486	A2	Buchstaben	329	1
1	1	498	Test	2	2	1	459	A1	Zahlen	330	2
1	2	364	Test	2	3	1	426	A2	Buchstaben	331	2
1	1	350	Test	2	3	1	530	A2	Buchstaben	332	1
1	1	365	Test	1	4	1	524	A2	Buchstaben	333	1
1	1	357	Test	2	2	1	552	A2	Buchstaben	334	1
1	1	364	Test	1	4	1	442	A2	Buchstaben	335	1
1	2	438	Test	2	2	1	458	A2	Buchstaben	336	1
1	1	504	Test	1	4	1	361	A1	Zahlen	337	2
1	1	423	Test	1	1	1	408	A1	Zahlen	338	1
1	1	478	Test	2	2	1	394	A1	Zahlen	339	1
1	1	517	Test	2	3	0	345	A1	Zahlen	340	1
1	1	443	Test	1	4	1	386	A2	Buchstaben	341	2
1	1	403	Test	1	1	1	481	A2	Buchstaben	342	1
1	2	442	Test	2	2	1	488	A2	Buchstaben	343	1
1	1	633	Test	1	4	1	374	A1	Zahlen	344	2
1	1	473	Test	1	1	1	517	A1	Zahlen	345	1
1	1	438	Test	2	2	1	354	A1	Zahlen	346	1
1	1	480	Test	2	3	0	331	A1	Zahlen	347	1
1	1	697	Test	1	4	1	418	A1	Zahlen	348	1
1	2	494	Test	2	2	1	391	A2	Buchstaben	349	2
1	1	392	Test	1	4	1	380	A2	Buchstaben	350	1
1	1	535	Test	1	1	1	448	A1	Zahlen	351	2
1	1	561	Test	1	1	1	416	A2	Buchstaben	352	2
11	1	587	Baseline	NA	NA	1	645	A1	Zahlen	1	2
11	1	494	Baseline	NA	NA	0	621	A1	Zahlen	2	1
11	1	544	Baseline	NA	NA	1	833	A1	Zahlen	3	1
11	1	467	Baseline	NA	NA	1	564	A2	Buchstaben	4	2
11	1	512	Baseline	NA	NA	1	1316	A1	Zahlen	5	2
11	2	6178	Baseline	NA	NA	1	642	A1	Zahlen	6	1
11	1	791	Baseline	NA	NA	1	691	A1	Zahlen	7	1
11	1	663	Baseline	NA	NA	1	673	A2	Buchstaben	8	2
11	1	527	Baseline	NA	NA	1	614	A2	Buchstaben	9	1
11	1	596	Baseline	NA	NA	1	729	A2	Buchstaben	10	1
11	1	495	Baseline	NA	NA	1	721	A1	Zahlen	11	2
11	2	1690	Baseline	NA	NA	1	659	A1	Zahlen	12	1
11	1	576	Baseline	NA	NA	1	817	A1	Zahlen	13	1
11	1	555	Baseline	NA	NA	1	679	A2	Buchstaben	14	2
11	1	454	Baseline	NA	NA	1	652	A2	Buchstaben	15	1
11	1	485	Baseline	NA	NA	1	1020	A1	Zahlen	16	2
11	1	526	Baseline	NA	NA	1	653	A1	Zahlen	17	1
11	2	1467	Baseline	NA	NA	1	881	A1	Zahlen	18	1
11	1	515	Baseline	NA	NA	1	743	A1	Zahlen	19	1
11	1	590	Baseline	NA	NA	1	681	A1	Zahlen	20	1
11	1	565	Baseline	NA	NA	1	1092	A2	Buchstaben	21	2
11	1	465	Baseline	NA	NA	1	611	A2	Buchstaben	22	1
11	2	966	Baseline	NA	NA	1	598	A1	Zahlen	23	2
11	1	415	Baseline	NA	NA	1	536	A2	Buchstaben	24	2
11	1	433	Baseline	NA	NA	1	733	A2	Buchstaben	25	1
11	1	673	Baseline	NA	NA	1	637	A2	Buchstaben	26	1
11	1	543	Baseline	NA	NA	1	528	A1	Zahlen	27	2
11	1	574	Baseline	NA	NA	1	525	A2	Buchstaben	28	2
11	2	686	Baseline	NA	NA	1	837	A2	Buchstaben	29	1
11	1	524	Baseline	NA	NA	1	651	A2	Buchstaben	30	1
11	1	433	Baseline	NA	NA	1	637	A2	Buchstaben	31	1
11	1	489	Baseline	NA	NA	1	592	A2	Buchstaben	32	1
11	1	574	Baseline	NA	NA	1	573	A1	Zahlen	33	2
11	1	518	Baseline	NA	NA	1	842	A1	Zahlen	34	1
11	2	817	Baseline	NA	NA	1	691	A1	Zahlen	35	1
11	1	493	Baseline	NA	NA	1	667	A1	Zahlen	36	1
11	1	551	Baseline	NA	NA	1	611	A2	Buchstaben	37	2
11	1	487	Baseline	NA	NA	1	686	A1	Zahlen	38	2
11	1	466	Baseline	NA	NA	1	659	A1	Zahlen	39	1
11	1	556	Baseline	NA	NA	1	528	A2	Buchstaben	40	2
11	2	911	Baseline	NA	NA	1	747	A1	Zahlen	41	2
11	1	442	Baseline	NA	NA	1	577	A2	Buchstaben	42	2
11	1	359	Baseline	NA	NA	1	603	A2	Buchstaben	43	1
11	1	446	Baseline	NA	NA	1	660	A1	Zahlen	44	2
11	1	501	Baseline	NA	NA	1	662	A1	Zahlen	45	1
11	2	802	Baseline	NA	NA	1	562	A1	Zahlen	46	1
11	1	488	Baseline	NA	NA	1	679	A1	Zahlen	47	1
11	1	475	Baseline	NA	NA	1	703	A2	Buchstaben	48	2
11	1	424	Baseline	NA	NA	1	553	A2	Buchstaben	49	1
11	1	493	Baseline	NA	NA	1	1156	A1	Zahlen	50	2
11	1	462	Baseline	NA	NA	1	559	A1	Zahlen	51	1
11	2	715	Baseline	NA	NA	1	575	A1	Zahlen	52	1
11	1	827	Baseline	NA	NA	1	552	A2	Buchstaben	53	2
11	1	451	Baseline	NA	NA	1	650	A2	Buchstaben	54	1
11	1	467	Baseline	NA	NA	1	556	A2	Buchstaben	55	1
11	2	667	Baseline	NA	NA	1	564	A1	Zahlen	56	2
11	1	451	Baseline	NA	NA	1	585	A2	Buchstaben	57	2
11	1	509	Baseline	NA	NA	1	633	A1	Zahlen	58	2
11	1	418	Baseline	NA	NA	1	611	A2	Buchstaben	59	2
11	1	589	Baseline	NA	NA	1	593	A2	Buchstaben	60	1
11	1	429	Baseline	NA	NA	1	696	A2	Buchstaben	61	1
11	2	677	Baseline	NA	NA	1	505	A1	Zahlen	62	2
11	1	447	Baseline	NA	NA	1	581	A2	Buchstaben	63	2
11	1	540	Baseline	NA	NA	1	549	A1	Zahlen	64	2
11	1	862	Baseline	NA	NA	1	672	A1	Zahlen	65	1
11	1	461	Baseline	NA	NA	1	630	A1	Zahlen	66	1
11	1	452	Baseline	NA	NA	0	451	A2	Buchstaben	67	2
11	1	565	Baseline	NA	NA	1	1155	A2	Buchstaben	68	1
11	2	735	Baseline	NA	NA	1	622	A1	Zahlen	69	2
11	1	495	Baseline	NA	NA	1	588	A1	Zahlen	70	1
11	1	619	Baseline	NA	NA	1	604	A1	Zahlen	71	1
11	1	624	Baseline	NA	NA	1	802	A1	Zahlen	72	1
11	1	1262	Baseline	NA	NA	1	817	A2	Buchstaben	73	2
11	2	893	Baseline	NA	NA	1	605	A1	Zahlen	74	2
11	1	867	Baseline	NA	NA	1	584	A1	Zahlen	75	1
11	1	567	Baseline	NA	NA	1	597	A2	Buchstaben	76	2
11	1	449	Baseline	NA	NA	1	584	A2	Buchstaben	77	1
11	1	435	Baseline	NA	NA	1	615	A2	Buchstaben	78	1
11	1	531	Baseline	NA	NA	1	578	A2	Buchstaben	79	1
11	2	736	Baseline	NA	NA	1	498	A1	Zahlen	80	2
11	1	478	Baseline	NA	NA	1	593	A1	Zahlen	81	1
11	1	429	Baseline	NA	NA	1	601	A2	Buchstaben	82	2
11	1	416	Baseline	NA	NA	1	665	A2	Buchstaben	83	1
11	1	927	Baseline	NA	NA	1	679	A1	Zahlen	84	2
11	2	630	Baseline	NA	NA	1	634	A1	Zahlen	85	1
11	1	408	Baseline	NA	NA	1	543	A2	Buchstaben	86	2
11	1	493	Baseline	NA	NA	1	652	A1	Zahlen	87	2
11	1	488	Baseline	NA	NA	1	582	A1	Zahlen	88	1
11	1	490	Baseline	NA	NA	1	624	A2	Buchstaben	89	2
11	1	487	Baseline	NA	NA	1	718	A1	Zahlen	90	2
11	2	751	Baseline	NA	NA	1	859	A1	Zahlen	91	1
11	1	1269	Baseline	NA	NA	1	1011	A2	Buchstaben	92	2
11	1	498	Baseline	NA	NA	1	675	A2	Buchstaben	93	1
11	1	526	Baseline	NA	NA	1	637	A1	Zahlen	94	2
11	1	532	Baseline	NA	NA	1	738	A2	Buchstaben	95	2
11	2	958	Baseline	NA	NA	1	467	A1	Zahlen	96	2
11	1	527	Baseline	NA	NA	1	485	A1	Zahlen	97	1
11	1	505	Baseline	NA	NA	1	522	A2	Buchstaben	98	2
11	1	547	Baseline	NA	NA	1	548	A2	Buchstaben	99	1
11	1	448	Baseline	NA	NA	1	583	A2	Buchstaben	100	1
11	1	773	Baseline	NA	NA	1	580	A1	Zahlen	101	2
11	2	683	Baseline	NA	NA	1	570	A1	Zahlen	102	1
11	1	531	Baseline	NA	NA	1	546	A1	Zahlen	103	1
11	1	411	Baseline	NA	NA	1	745	A1	Zahlen	104	1
11	1	469	Baseline	NA	NA	1	465	A2	Buchstaben	105	2
11	1	455	Baseline	NA	NA	1	520	A2	Buchstaben	106	1
11	1	572	Baseline	NA	NA	1	611	A1	Zahlen	107	2
11	2	700	Baseline	NA	NA	1	574	A1	Zahlen	108	1
11	1	500	Baseline	NA	NA	1	581	A1	Zahlen	109	1
11	1	497	Baseline	NA	NA	1	562	A2	Buchstaben	110	2
11	1	350	Baseline	NA	NA	1	506	A2	Buchstaben	111	1
11	1	611	Baseline	NA	NA	1	649	A1	Zahlen	112	2
11	1	600	Baseline	NA	NA	1	524	A2	Buchstaben	113	2
11	1	627	Baseline	NA	NA	1	652	A2	Buchstaben	114	1
11	2	632	Baseline	NA	NA	1	636	A1	Zahlen	115	2
11	1	499	Baseline	NA	NA	1	644	A1	Zahlen	116	1
11	1	480	Baseline	NA	NA	1	612	A1	Zahlen	117	1
11	1	474	Baseline	NA	NA	1	518	A2	Buchstaben	118	2
11	1	450	Baseline	NA	NA	1	664	A2	Buchstaben	119	1
11	2	969	Baseline	NA	NA	1	568	A1	Zahlen	120	2
11	1	495	Baseline	NA	NA	1	584	A2	Buchstaben	121	2
11	1	484	Baseline	NA	NA	1	645	A1	Zahlen	122	2
11	1	481	Baseline	NA	NA	1	672	A1	Zahlen	123	1
11	1	441	Baseline	NA	NA	1	661	A2	Buchstaben	124	2
11	2	1115	Baseline	NA	NA	1	537	A1	Zahlen	125	2
11	1	911	Baseline	NA	NA	1	716	A1	Zahlen	126	1
11	1	736	Baseline	NA	NA	1	626	A1	Zahlen	127	1
11	1	483	Baseline	NA	NA	1	562	A1	Zahlen	128	1
11	1	424	Baseline	NA	NA	1	569	A2	Buchstaben	129	2
11	1	544	Baseline	NA	NA	1	921	A2	Buchstaben	130	1
11	2	624	Baseline	NA	NA	1	914	A1	Zahlen	131	2
11	1	521	Baseline	NA	NA	1	605	A1	Zahlen	132	1
11	1	577	Baseline	NA	NA	1	914	A1	Zahlen	133	1
11	1	668	Baseline	NA	NA	1	688	A1	Zahlen	134	1
11	1	554	Baseline	NA	NA	1	646	A2	Buchstaben	135	2
11	1	559	Baseline	NA	NA	1	915	A1	Zahlen	136	2
11	1	493	Baseline	NA	NA	1	1020	A1	Zahlen	137	1
11	2	689	Baseline	NA	NA	1	616	A1	Zahlen	138	1
11	1	758	Baseline	NA	NA	1	579	A2	Buchstaben	139	2
11	1	689	Baseline	NA	NA	1	608	A2	Buchstaben	140	1
11	1	609	Baseline	NA	NA	1	544	A1	Zahlen	141	2
11	2	780	Baseline	NA	NA	0	478	A1	Zahlen	142	1
11	1	482	Baseline	NA	NA	1	745	A1	Zahlen	143	1
11	1	605	Baseline	NA	NA	1	588	A1	Zahlen	144	1
11	1	530	Baseline	NA	NA	1	809	A1	Zahlen	145	1
11	1	469	Baseline	NA	NA	1	569	A2	Buchstaben	146	2
11	2	714	Baseline	NA	NA	1	670	A1	Zahlen	147	2
11	1	520	Baseline	NA	NA	1	500	A2	Buchstaben	148	2
11	1	466	Baseline	NA	NA	1	611	A2	Buchstaben	149	1
11	1	490	Baseline	NA	NA	1	1288	A2	Buchstaben	150	1
11	1	544	Baseline	NA	NA	1	642	A1	Zahlen	151	2
11	1	619	Baseline	NA	NA	1	1076	A1	Zahlen	152	1
11	1	500	Baseline	NA	NA	1	525	A1	Zahlen	153	1
11	2	814	Baseline	NA	NA	1	488	A1	Zahlen	154	1
11	1	500	Baseline	NA	NA	1	1213	A1	Zahlen	155	1
11	1	413	Baseline	NA	NA	1	539	A2	Buchstaben	156	2
11	1	479	Baseline	NA	NA	1	523	A2	Buchstaben	157	1
11	1	548	Baseline	NA	NA	1	536	A2	Buchstaben	158	1
11	1	713	Baseline	NA	NA	1	526	A2	Buchstaben	159	1
11	1	521	Baseline	NA	NA	1	456	A1	Zahlen	160	2
11	2	651	Baseline	NA	NA	1	554	A1	Zahlen	161	1
11	1	486	Baseline	NA	NA	1	565	A1	Zahlen	162	1
11	1	523	Baseline	NA	NA	1	498	A2	Buchstaben	163	2
11	1	525	Baseline	NA	NA	1	628	A1	Zahlen	164	2
11	1	645	Baseline	NA	NA	1	660	A1	Zahlen	165	1
11	2	1142	Baseline	NA	NA	1	512	A1	Zahlen	166	1
11	1	1161	Baseline	NA	NA	1	857	A1	Zahlen	167	1
11	1	585	Baseline	NA	NA	1	569	A1	Zahlen	168	1
11	1	874	Baseline	NA	NA	1	679	A2	Buchstaben	169	2
11	1	603	Baseline	NA	NA	1	530	A1	Zahlen	170	2
11	1	598	Baseline	NA	NA	1	579	A1	Zahlen	171	1
11	2	669	Baseline	NA	NA	1	578	A1	Zahlen	172	1
11	1	1264	Baseline	NA	NA	1	651	A1	Zahlen	173	1
11	1	778	Baseline	NA	NA	1	668	A2	Buchstaben	174	2
11	1	11051	Test	1	0	1	616	A2	Buchstaben	1	2
11	1	1819	Test	1	1	1	528	A1	Zahlen	2	2
11	1	1062	Test	1	1	1	569	A1	Zahlen	3	1
11	2	2893	Test	2	2	1	395	A1	Zahlen	4	1
11	1	972	Test	2	3	1	396	A2	Buchstaben	5	2
11	1	847	Test	2	3	1	510	A1	Zahlen	6	2
11	1	744	Test	2	3	1	641	A2	Buchstaben	7	2
11	1	894	Test	1	4	1	544	A1	Zahlen	8	2
11	1	1003	Test	2	2	1	563	A2	Buchstaben	9	2
11	2	914	Test	2	3	0	343	A1	Zahlen	10	2
11	1	1575	Test	2	3	1	546	A2	Buchstaben	11	2
11	1	635	Test	2	3	1	600	A1	Zahlen	12	2
11	1	630	Test	1	4	1	602	A1	Zahlen	13	1
11	1	721	Test	1	1	1	472	A1	Zahlen	14	1
11	2	1134	Test	2	2	1	449	A1	Zahlen	15	1
11	1	991	Test	2	3	1	404	A2	Buchstaben	16	2
11	1	1173	Test	2	3	1	720	A1	Zahlen	17	2
11	1	737	Test	2	3	1	475	A1	Zahlen	18	1
11	1	601	Test	1	4	1	472	A1	Zahlen	19	1
11	2	782	Test	2	2	1	408	A1	Zahlen	20	1
11	1	777	Test	1	4	0	371	A2	Buchstaben	21	2
11	1	922	Test	2	2	1	490	A2	Buchstaben	22	1
11	1	1853	Test	2	3	1	546	A1	Zahlen	23	2
11	1	774	Test	2	3	1	423	A1	Zahlen	24	1
11	1	635	Test	2	3	1	759	A2	Buchstaben	25	2
11	1	651	Test	2	3	1	458	A2	Buchstaben	26	1
11	2	798	Test	2	3	1	443	A1	Zahlen	27	2
11	1	878	Test	1	4	1	683	A1	Zahlen	28	1
11	1	874	Test	2	2	1	583	A2	Buchstaben	29	2
11	1	885	Test	2	3	1	389	A1	Zahlen	30	2
11	1	731	Test	2	3	1	426	A2	Buchstaben	31	2
11	2	848	Test	2	3	1	471	A1	Zahlen	32	2
11	1	659	Test	1	4	1	421	A1	Zahlen	33	1
11	1	592	Test	2	2	1	404	A1	Zahlen	34	1
11	1	709	Test	1	4	1	370	A2	Buchstaben	35	2
11	1	2829	Test	1	1	1	430	A2	Buchstaben	36	1
11	1	735	Test	1	1	1	513	A1	Zahlen	37	2
11	1	1474	Test	1	1	1	536	A1	Zahlen	38	1
11	2	1732	Test	2	2	1	504	A1	Zahlen	39	1
11	1	1089	Test	2	3	1	713	A1	Zahlen	40	1
11	1	784	Test	1	4	1	506	A2	Buchstaben	41	2
11	1	1091	Test	2	2	1	563	A2	Buchstaben	42	1
11	2	695	Test	2	3	1	472	A1	Zahlen	43	2
11	1	689	Test	2	3	1	536	A2	Buchstaben	44	2
11	1	594	Test	1	4	1	373	A2	Buchstaben	45	1
11	1	1413	Test	2	2	1	409	A2	Buchstaben	46	1
11	1	660	Test	2	3	1	558	A2	Buchstaben	47	1
11	1	775	Test	1	4	1	409	A1	Zahlen	48	2
11	1	666	Test	1	1	1	670	A1	Zahlen	49	1
11	2	1538	Test	2	2	1	358	A1	Zahlen	50	1
11	1	879	Test	1	4	1	603	A2	Buchstaben	51	2
11	1	1116	Test	2	2	1	546	A1	Zahlen	52	2
11	1	707	Test	2	3	1	527	A2	Buchstaben	53	2
11	1	1619	Test	2	3	1	375	A1	Zahlen	54	2
11	2	829	Test	2	3	1	528	A1	Zahlen	55	1
11	1	1208	Test	1	4	1	560	A1	Zahlen	56	1
11	1	2564	Test	1	1	1	559	A1	Zahlen	57	1
11	1	2323	Test	1	1	1	534	A2	Buchstaben	58	2
11	1	786	Test	1	1	1	459	A2	Buchstaben	59	1
11	2	972	Test	2	2	1	388	A1	Zahlen	60	2
11	1	992	Test	2	3	1	525	A1	Zahlen	61	1
11	1	1123	Test	1	4	1	435	A1	Zahlen	62	1
11	1	1353	Test	1	1	0	455	A1	Zahlen	63	1
11	1	2938	Test	1	1	1	457	A2	Buchstaben	64	2
11	2	1231	Test	2	2	1	492	A1	Zahlen	65	2
11	1	671	Test	2	3	1	604	A1	Zahlen	66	1
11	1	800	Test	2	3	1	495	A1	Zahlen	67	1
11	1	581	Test	2	3	1	479	A1	Zahlen	68	1
11	1	885	Test	2	3	1	460	A2	Buchstaben	69	2
11	1	728	Test	2	3	1	471	A1	Zahlen	70	2
11	1	1493	Test	1	4	1	489	A1	Zahlen	71	1
11	2	898	Test	2	2	1	436	A1	Zahlen	72	1
11	1	984	Test	2	3	1	434	A1	Zahlen	73	1
11	1	584	Test	2	3	1	538	A1	Zahlen	74	1
11	1	1936	Test	1	4	1	381	A2	Buchstaben	75	2
11	1	934	Test	1	1	1	488	A1	Zahlen	76	2
11	1	1107	Test	2	2	1	449	A2	Buchstaben	77	2
11	1	908	Test	1	4	1	513	A2	Buchstaben	78	1
11	2	1573	Test	2	2	1	521	A1	Zahlen	79	2
11	1	967	Test	1	4	1	455	A1	Zahlen	80	1
11	1	509	Test	1	1	1	465	A1	Zahlen	81	1
11	1	1253	Test	1	1	1	421	A1	Zahlen	82	1
11	1	752	Test	2	2	1	525	A2	Buchstaben	83	2
11	1	995	Test	2	3	1	498	A1	Zahlen	84	2
11	2	911	Test	2	3	1	483	A1	Zahlen	85	1
11	1	607	Test	1	4	1	430	A2	Buchstaben	86	2
11	1	1025	Test	2	2	1	428	A2	Buchstaben	87	1
11	1	1858	Test	1	4	1	382	A1	Zahlen	88	2
11	1	699	Test	1	1	0	446	A2	Buchstaben	89	2
11	1	741	Test	2	2	1	567	A1	Zahlen	90	2
11	2	790	Test	2	3	1	506	A1	Zahlen	91	1
11	1	513	Test	2	3	1	501	A2	Buchstaben	92	2
11	1	659	Test	2	3	1	533	A2	Buchstaben	93	1
11	1	883	Test	1	4	1	499	A2	Buchstaben	94	1
11	1	774	Test	1	1	1	472	A1	Zahlen	95	2
11	1	561	Test	1	1	1	456	A1	Zahlen	96	1
11	2	710	Test	2	2	1	515	A1	Zahlen	97	1
11	1	729	Test	1	4	1	536	A2	Buchstaben	98	2
11	1	649	Test	1	1	1	464	A2	Buchstaben	99	1
11	1	982	Test	2	2	1	441	A1	Zahlen	100	2
11	1	810	Test	2	3	1	513	A1	Zahlen	101	1
11	2	775	Test	2	3	1	465	A1	Zahlen	102	1
11	1	690	Test	1	4	1	513	A1	Zahlen	103	1
11	1	1117	Test	1	1	0	418	A2	Buchstaben	104	2
11	1	941	Test	2	2	1	471	A1	Zahlen	105	2
11	2	744	Test	2	3	1	418	A1	Zahlen	106	1
11	1	1022	Test	2	3	1	496	A1	Zahlen	107	1
11	1	886	Test	2	3	1	582	A2	Buchstaben	108	2
11	1	815	Test	1	4	1	545	A2	Buchstaben	109	1
11	1	592	Test	2	2	1	460	A1	Zahlen	110	2
11	2	994	Test	2	3	1	399	A1	Zahlen	111	1
11	1	1156	Test	1	4	1	513	A2	Buchstaben	112	2
11	1	677	Test	1	1	1	513	A2	Buchstaben	113	1
11	1	637	Test	1	1	1	489	A2	Buchstaben	114	1
11	1	786	Test	2	2	1	420	A1	Zahlen	115	2
11	1	698	Test	2	3	1	524	A2	Buchstaben	116	2
11	2	944	Test	2	3	1	378	A1	Zahlen	117	2
11	1	675	Test	2	3	1	495	A1	Zahlen	118	1
11	1	627	Test	2	3	1	420	A2	Buchstaben	119	2
11	1	632	Test	2	3	1	796	A2	Buchstaben	120	1
11	1	688	Test	2	3	1	407	A1	Zahlen	121	2
11	1	568	Test	1	4	1	447	A1	Zahlen	122	1
11	1	544	Test	1	1	1	1025	A1	Zahlen	123	1
11	2	792	Test	2	2	1	477	A1	Zahlen	124	1
11	1	678	Test	2	3	1	490	A2	Buchstaben	125	2
11	1	769	Test	2	3	1	672	A2	Buchstaben	126	1
11	1	593	Test	2	3	1	453	A1	Zahlen	127	2
11	1	622	Test	2	3	1	704	A2	Buchstaben	128	2
11	2	569	Test	2	3	1	464	A1	Zahlen	129	2
11	1	635	Test	1	4	1	487	A2	Buchstaben	130	2
11	1	899	Test	2	2	1	501	A2	Buchstaben	131	1
11	1	526	Test	1	4	1	517	A2	Buchstaben	132	1
11	1	1121	Test	2	2	1	518	A2	Buchstaben	133	1
11	2	810	Test	2	3	1	457	A1	Zahlen	134	2
11	1	732	Test	1	4	1	436	A2	Buchstaben	135	2
11	1	1175	Test	2	2	1	506	A2	Buchstaben	136	1
11	1	591	Test	2	3	1	531	A1	Zahlen	137	2
11	1	527	Test	1	4	1	502	A2	Buchstaben	138	2
11	1	828	Test	2	2	1	441	A1	Zahlen	139	2
11	1	564	Test	2	3	1	403	A2	Buchstaben	140	2
11	2	1308	Test	2	3	1	554	A1	Zahlen	141	2
11	1	982	Test	1	4	1	456	A1	Zahlen	142	1
11	1	606	Test	1	1	1	789	A2	Buchstaben	143	2
11	1	671	Test	2	2	1	475	A1	Zahlen	144	2
11	2	804	Test	2	3	1	483	A1	Zahlen	145	1
11	1	537	Test	1	4	1	515	A2	Buchstaben	146	2
11	1	745	Test	1	1	1	363	A2	Buchstaben	147	1
11	1	518	Test	1	1	1	442	A2	Buchstaben	148	1
11	2	1008	Test	2	2	1	400	A1	Zahlen	149	2
11	1	614	Test	2	3	1	488	A1	Zahlen	150	1
11	1	652	Test	1	4	1	586	A2	Buchstaben	151	2
11	1	814	Test	2	2	1	424	A2	Buchstaben	152	1
11	1	734	Test	1	4	1	525	A2	Buchstaben	153	1
11	1	521	Test	1	1	1	504	A2	Buchstaben	154	1
11	2	510	Test	2	2	1	434	A1	Zahlen	155	2
11	1	531	Test	2	3	1	458	A2	Buchstaben	156	2
11	1	536	Test	2	3	1	385	A2	Buchstaben	157	1
11	1	1354	Test	1	4	1	440	A1	Zahlen	158	2
11	2	627	Test	2	2	1	536	A1	Zahlen	159	1
11	1	723	Test	1	4	1	538	A2	Buchstaben	160	2
11	1	1445	Test	1	1	1	534	A1	Zahlen	161	2
11	1	1268	Test	1	1	1	658	A2	Buchstaben	162	2
11	1	657	Test	2	2	1	458	A1	Zahlen	163	2
11	1	723	Test	2	3	1	458	A1	Zahlen	164	1
11	2	694	Test	2	3	1	464	A1	Zahlen	165	1
11	1	736	Test	1	4	1	634	A1	Zahlen	166	1
11	1	606	Test	1	1	1	485	A1	Zahlen	167	1
11	1	750	Test	2	2	1	435	A2	Buchstaben	168	2
11	1	1123	Test	2	3	1	387	A2	Buchstaben	169	1
11	1	722	Test	1	4	1	473	A1	Zahlen	170	2
11	2	1580	Test	2	2	1	472	A1	Zahlen	171	1
11	1	622	Test	1	4	1	504	A2	Buchstaben	172	2
11	1	483	Test	1	1	1	490	A1	Zahlen	173	2
11	1	744	Test	2	2	1	474	A2	Buchstaben	174	2
11	2	1483	Test	2	3	1	428	A1	Zahlen	175	2
11	1	717	Test	1	4	1	521	A2	Buchstaben	176	2
11	1	655	Test	1	1	1	537	A2	Buchstaben	177	1
11	1	1023	Test	1	1	1	498	A1	Zahlen	178	2
11	1	699	Test	1	1	1	516	A1	Zahlen	179	1
11	2	1491	Test	2	2	1	571	A1	Zahlen	180	1
11	1	623	Test	1	4	1	433	A2	Buchstaben	181	2
11	1	639	Test	2	2	1	483	A1	Zahlen	182	2
11	1	452	Test	2	3	1	427	A1	Zahlen	183	1
11	1	756	Test	2	3	1	416	A1	Zahlen	184	1
11	1	485	Test	2	3	1	516	A1	Zahlen	185	1
11	1	570	Test	2	3	1	546	A2	Buchstaben	186	2
11	2	751	Test	2	3	1	476	A1	Zahlen	187	2
11	1	714	Test	1	4	1	550	A2	Buchstaben	188	2
11	1	746	Test	1	1	1	460	A2	Buchstaben	189	1
11	1	709	Test	1	1	1	537	A2	Buchstaben	190	1
11	1	512	Test	2	2	1	468	A2	Buchstaben	191	1
11	1	623	Test	1	4	1	529	A1	Zahlen	192	2
11	2	1565	Test	2	2	1	406	A1	Zahlen	193	1
11	1	620	Test	2	3	1	485	A2	Buchstaben	194	2
11	1	815	Test	1	4	1	409	A1	Zahlen	195	2
11	1	513	Test	1	1	1	381	A2	Buchstaben	196	2
11	1	755	Test	1	1	1	544	A1	Zahlen	197	2
11	2	1148	Test	2	2	1	673	A1	Zahlen	198	1
11	1	605	Test	1	4	1	444	A2	Buchstaben	199	2
11	1	487	Test	2	2	1	454	A1	Zahlen	200	2
11	1	1319	Test	2	3	1	495	A1	Zahlen	201	1
11	2	990	Test	2	3	1	443	A1	Zahlen	202	1
11	1	679	Test	2	3	1	451	A1	Zahlen	203	1
11	1	809	Test	2	3	1	560	A1	Zahlen	204	1
11	1	708	Test	2	3	0	409	A2	Buchstaben	205	2
11	1	547	Test	1	4	0	405	A2	Buchstaben	206	1
11	2	1514	Test	2	2	1	512	A1	Zahlen	207	2
11	1	681	Test	2	3	1	417	A1	Zahlen	208	1
11	1	563	Test	2	3	1	515	A2	Buchstaben	209	2
11	1	622	Test	2	3	1	471	A2	Buchstaben	210	1
11	1	480	Test	2	3	1	455	A1	Zahlen	211	2
11	2	733	Test	2	3	1	415	A1	Zahlen	212	1
11	1	818	Test	2	3	1	532	A2	Buchstaben	213	2
11	1	579	Test	1	4	1	444	A1	Zahlen	214	2
11	1	1090	Test	1	1	1	698	A1	Zahlen	215	1
11	1	590	Test	2	2	1	410	A2	Buchstaben	216	2
11	2	1515	Test	2	3	1	609	A1	Zahlen	217	2
11	1	685	Test	2	3	1	420	A2	Buchstaben	218	2
11	1	744	Test	2	3	1	530	A1	Zahlen	219	2
11	1	618	Test	2	3	1	492	A1	Zahlen	220	1
11	1	650	Test	2	3	1	457	A1	Zahlen	221	1
11	1	546	Test	2	3	1	435	A2	Buchstaben	222	2
11	1	487	Test	2	3	1	493	A2	Buchstaben	223	1
11	2	607	Test	2	3	1	485	A1	Zahlen	224	2
11	1	601	Test	1	4	1	677	A2	Buchstaben	225	2
11	1	671	Test	1	1	1	499	A1	Zahlen	226	2
11	1	524	Test	1	1	1	515	A2	Buchstaben	227	2
11	1	409	Test	1	1	1	471	A2	Buchstaben	228	1
11	2	1374	Test	2	2	1	425	A1	Zahlen	229	2
11	1	602	Test	1	4	1	432	A2	Buchstaben	230	2
11	1	572	Test	1	1	1	483	A2	Buchstaben	231	1
11	1	548	Test	1	1	1	461	A1	Zahlen	232	2
11	2	800	Test	2	2	1	413	A1	Zahlen	233	1
11	1	922	Test	2	3	1	450	A1	Zahlen	234	1
11	1	693	Test	2	3	1	668	A2	Buchstaben	235	2
11	1	1291	Test	2	3	1	388	A2	Buchstaben	236	1
11	2	1063	Test	2	3	1	466	A1	Zahlen	237	2
11	1	971	Test	1	4	1	538	A1	Zahlen	238	1
11	1	598	Test	1	1	1	754	A1	Zahlen	239	1
11	1	1116	Test	1	1	1	481	A2	Buchstaben	240	2
11	1	895	Test	2	2	1	537	A1	Zahlen	241	2
11	1	1051	Test	2	3	1	458	A2	Buchstaben	242	2
11	2	894	Test	2	3	1	472	A1	Zahlen	243	2
11	1	604	Test	1	4	1	499	A2	Buchstaben	244	2
11	1	822	Test	1	1	1	552	A2	Buchstaben	245	1
11	1	705	Test	2	2	1	683	A1	Zahlen	246	2
11	1	498	Test	1	4	1	563	A1	Zahlen	247	1
11	1	604	Test	1	1	1	379	A1	Zahlen	248	1
11	2	596	Test	2	2	1	672	A1	Zahlen	249	1
11	1	588	Test	2	3	1	504	A1	Zahlen	250	1
11	1	385	Test	1	4	1	674	A1	Zahlen	251	1
11	1	505	Test	2	2	1	890	A2	Buchstaben	252	2
11	2	593	Test	2	3	1	589	A1	Zahlen	253	2
11	1	551	Test	2	3	1	426	A2	Buchstaben	254	2
11	1	702	Test	2	3	1	432	A1	Zahlen	255	2
11	1	470	Test	1	4	0	402	A2	Buchstaben	256	2
11	1	641	Test	2	2	1	552	A1	Zahlen	257	2
11	2	649	Test	2	3	1	545	A1	Zahlen	258	1
11	1	745	Test	2	3	1	459	A1	Zahlen	259	1
11	1	686	Test	1	4	1	365	A2	Buchstaben	260	2
11	1	641	Test	2	2	1	447	A1	Zahlen	261	2
11	1	896	Test	2	3	1	403	A1	Zahlen	262	1
11	1	529	Test	1	4	1	527	A1	Zahlen	263	1
11	2	763	Test	2	2	0	359	A1	Zahlen	264	1
11	1	629	Test	2	3	1	393	A2	Buchstaben	265	2
11	1	666	Test	1	4	1	475	A1	Zahlen	266	2
11	1	425	Test	1	1	1	498	A2	Buchstaben	267	2
11	2	1137	Test	2	2	1	451	A1	Zahlen	268	2
11	1	831	Test	2	3	1	476	A2	Buchstaben	269	2
11	1	717	Test	1	4	1	385	A1	Zahlen	270	2
11	1	860	Test	2	2	1	486	A2	Buchstaben	271	2
11	1	826	Test	2	3	1	964	A1	Zahlen	272	2
11	1	742	Test	2	3	1	392	A1	Zahlen	273	1
11	1	635	Test	1	4	1	399	A1	Zahlen	274	1
11	2	552	Test	2	2	0	460	A1	Zahlen	275	1
11	1	559	Test	2	3	1	411	A2	Buchstaben	276	2
11	1	545	Test	2	3	1	499	A2	Buchstaben	277	1
11	1	657	Test	1	4	1	387	A1	Zahlen	278	2
11	1	604	Test	2	2	1	762	A2	Buchstaben	279	2
11	1	580	Test	2	3	1	477	A2	Buchstaben	280	1
11	2	972	Test	2	3	1	403	A2	Buchstaben	281	1
11	1	1009	Test	1	4	1	600	A2	Buchstaben	282	1
11	1	532	Test	1	1	1	523	A2	Buchstaben	283	1
11	1	732	Test	1	1	1	427	A2	Buchstaben	284	1
11	1	630	Test	1	1	1	426	A1	Zahlen	285	2
11	1	635	Test	1	1	1	543	A1	Zahlen	286	1
11	2	1075	Test	2	2	1	456	A1	Zahlen	287	1
11	1	735	Test	2	3	1	408	A2	Buchstaben	288	2
11	1	596	Test	2	3	0	432	A1	Zahlen	289	2
11	1	739	Test	1	4	1	453	A1	Zahlen	290	1
11	1	872	Test	1	1	1	541	A2	Buchstaben	291	2
11	1	801	Test	1	1	1	520	A1	Zahlen	292	2
11	2	785	Test	2	2	1	499	A2	Buchstaben	293	2
11	1	753	Test	2	3	1	438	A2	Buchstaben	294	1
11	1	1439	Test	2	3	1	463	A2	Buchstaben	295	1
11	1	667	Test	2	3	1	373	A2	Buchstaben	296	1
11	1	680	Test	2	3	1	412	A1	Zahlen	297	2
11	1	469	Test	1	4	1	481	A2	Buchstaben	298	2
11	2	845	Test	2	2	1	380	A1	Zahlen	299	2
11	1	656	Test	2	3	1	417	A1	Zahlen	300	1
11	1	832	Test	2	3	1	452	A1	Zahlen	301	1
11	1	496	Test	2	3	1	537	A2	Buchstaben	302	2
11	2	861	Test	2	3	1	471	A2	Buchstaben	303	1
11	1	613	Test	1	4	1	431	A1	Zahlen	304	2
11	1	1716	Test	2	2	1	460	A1	Zahlen	305	1
11	1	631	Test	2	3	1	404	A1	Zahlen	306	1
11	1	705	Test	2	3	1	483	A1	Zahlen	307	1
11	1	606	Test	2	3	1	509	A1	Zahlen	308	1
11	2	1134	Test	2	3	1	497	A1	Zahlen	309	1
11	1	1375	Test	1	4	1	579	A2	Buchstaben	310	2
11	1	854	Test	1	1	1	576	A2	Buchstaben	311	1
11	1	1282	Test	1	1	1	458	A2	Buchstaben	312	1
11	1	822	Test	1	1	1	527	A1	Zahlen	313	2
11	1	1102	Test	1	1	1	448	A1	Zahlen	314	1
11	1	649	Test	1	1	1	472	A1	Zahlen	315	1
11	2	1177	Test	2	2	1	484	A1	Zahlen	316	1
11	1	586	Test	2	3	1	444	A1	Zahlen	317	1
11	1	527	Test	2	3	1	470	A1	Zahlen	318	1
11	1	1007	Test	1	4	1	518	A2	Buchstaben	319	2
11	2	650	Test	2	2	1	489	A1	Zahlen	320	2
11	1	781	Test	1	4	1	702	A1	Zahlen	321	1
11	1	827	Test	2	2	1	383	A2	Buchstaben	322	2
11	1	504	Test	2	3	1	425	A2	Buchstaben	323	1
11	2	808	Test	2	3	1	439	A2	Buchstaben	324	1
11	1	709	Test	1	4	1	474	A1	Zahlen	325	2
11	1	1624	Test	1	1	1	468	A1	Zahlen	326	1
11	1	887	Test	2	2	1	487	A2	Buchstaben	327	2
11	1	762	Test	1	4	1	706	A1	Zahlen	328	2
11	1	3077	Test	1	1	0	401	A2	Buchstaben	329	2
11	2	1071	Test	2	2	1	500	A2	Buchstaben	330	1
11	1	624	Test	1	4	0	785	A2	Buchstaben	331	1
11	1	858	Test	1	1	1	484	A2	Buchstaben	332	1
11	1	562	Test	2	2	1	449	A2	Buchstaben	333	1
11	2	1471	Test	2	3	1	445	A1	Zahlen	334	2
11	1	545	Test	1	4	1	426	A2	Buchstaben	335	2
11	1	614	Test	1	1	1	399	A2	Buchstaben	336	1
11	1	1080	Test	2	2	1	504	A1	Zahlen	337	2
11	1	553	Test	1	4	1	493	A1	Zahlen	338	1
11	1	611	Test	2	2	1	466	A1	Zahlen	339	1
11	2	752	Test	2	3	1	629	A1	Zahlen	340	1
11	1	473	Test	1	4	1	453	A1	Zahlen	341	1
11	1	749	Test	1	1	1	490	A1	Zahlen	342	1
11	1	760	Test	1	1	1	471	A1	Zahlen	343	1
11	1	502	Test	1	1	1	407	A2	Buchstaben	344	2
11	1	901	Test	1	1	1	535	A1	Zahlen	345	2
11	2	667	Test	2	2	1	503	A1	Zahlen	346	1
11	1	584	Test	1	4	1	490	A1	Zahlen	347	1
11	1	574	Test	1	1	1	668	A1	Zahlen	348	1
11	1	544	Test	2	2	1	514	A2	Buchstaben	349	2
11	1	760	Test	2	3	1	606	A1	Zahlen	350	2
11	1	515	Test	2	3	1	407	A2	Buchstaben	351	2
11	1	589	Test	1	4	1	473	A2	Buchstaben	352	1
12	1	785	Baseline	NA	NA	1	1537	A1	Zahlen	1	1
12	1	454	Baseline	NA	NA	1	765	A1	Zahlen	2	1
12	1	497	Baseline	NA	NA	1	576	A1	Zahlen	3	1
12	1	464	Baseline	NA	NA	1	659	A2	Buchstaben	4	2
12	1	398	Baseline	NA	NA	1	601	A1	Zahlen	5	2
12	2	1353	Baseline	NA	NA	1	1011	A2	Buchstaben	6	2
12	1	555	Baseline	NA	NA	0	467	A1	Zahlen	7	2
12	1	868	Baseline	NA	NA	1	624	A2	Buchstaben	8	2
12	1	552	Baseline	NA	NA	1	611	A2	Buchstaben	9	1
12	1	459	Baseline	NA	NA	1	650	A2	Buchstaben	10	1
12	1	478	Baseline	NA	NA	1	906	A1	Zahlen	11	2
12	2	576	Baseline	NA	NA	1	876	A1	Zahlen	12	1
12	1	516	Baseline	NA	NA	1	836	A1	Zahlen	13	1
12	1	1286	Baseline	NA	NA	1	919	A2	Buchstaben	14	2
12	1	1395	Baseline	NA	NA	1	573	A2	Buchstaben	15	1
12	1	654	Baseline	NA	NA	1	726	A1	Zahlen	16	2
12	1	500	Baseline	NA	NA	1	766	A1	Zahlen	17	1
12	2	823	Baseline	NA	NA	1	715	A1	Zahlen	18	1
12	1	433	Baseline	NA	NA	1	662	A1	Zahlen	19	1
12	1	557	Baseline	NA	NA	1	733	A1	Zahlen	20	1
12	1	2289	Baseline	NA	NA	1	897	A2	Buchstaben	21	2
12	1	819	Baseline	NA	NA	1	539	A2	Buchstaben	22	1
12	2	954	Baseline	NA	NA	1	547	A2	Buchstaben	23	1
12	1	984	Baseline	NA	NA	0	338	A2	Buchstaben	24	1
12	1	637	Baseline	NA	NA	1	563	A2	Buchstaben	25	1
12	1	407	Baseline	NA	NA	1	381	A2	Buchstaben	26	1
12	1	477	Baseline	NA	NA	1	530	A1	Zahlen	27	2
12	1	898	Baseline	NA	NA	1	484	A2	Buchstaben	28	2
12	2	1089	Baseline	NA	NA	1	662	A1	Zahlen	29	2
12	1	644	Baseline	NA	NA	0	474	A2	Buchstaben	30	2
12	1	619	Baseline	NA	NA	1	594	A2	Buchstaben	31	1
12	1	663	Baseline	NA	NA	1	443	A2	Buchstaben	32	1
12	1	496	Baseline	NA	NA	1	705	A1	Zahlen	33	2
12	1	581	Baseline	NA	NA	1	1069	A1	Zahlen	34	1
12	2	1928	Baseline	NA	NA	1	730	A2	Buchstaben	35	2
12	1	578	Baseline	NA	NA	1	846	A1	Zahlen	36	2
12	1	700	Baseline	NA	NA	1	895	A2	Buchstaben	37	2
12	1	545	Baseline	NA	NA	1	591	A1	Zahlen	38	2
12	1	588	Baseline	NA	NA	1	546	A1	Zahlen	39	1
12	1	967	Baseline	NA	NA	0	298	A2	Buchstaben	40	2
12	2	799	Baseline	NA	NA	1	587	A2	Buchstaben	41	1
12	1	580	Baseline	NA	NA	1	605	A2	Buchstaben	42	1
12	1	673	Baseline	NA	NA	1	418	A2	Buchstaben	43	1
12	1	382	Baseline	NA	NA	1	459	A1	Zahlen	44	2
12	1	713	Baseline	NA	NA	0	344	A1	Zahlen	45	1
12	2	1000	Baseline	NA	NA	0	583	A1	Zahlen	46	1
12	1	395	Baseline	NA	NA	1	527	A1	Zahlen	47	1
12	1	2802	Baseline	NA	NA	1	603	A2	Buchstaben	48	2
12	1	614	Baseline	NA	NA	1	364	A2	Buchstaben	49	1
12	1	511	Baseline	NA	NA	1	412	A1	Zahlen	50	2
12	1	522	Baseline	NA	NA	1	389	A1	Zahlen	51	1
12	2	944	Baseline	NA	NA	0	298	A1	Zahlen	52	1
12	1	539	Baseline	NA	NA	1	839	A2	Buchstaben	53	2
12	1	488	Baseline	NA	NA	1	670	A2	Buchstaben	54	1
12	1	811	Baseline	NA	NA	1	483	A2	Buchstaben	55	1
12	2	598	Baseline	NA	NA	1	651	A1	Zahlen	56	2
12	1	930	Baseline	NA	NA	1	608	A2	Buchstaben	57	2
12	1	752	Baseline	NA	NA	1	601	A1	Zahlen	58	2
12	1	987	Baseline	NA	NA	1	520	A2	Buchstaben	59	2
12	1	1385	Baseline	NA	NA	1	614	A2	Buchstaben	60	1
12	1	434	Baseline	NA	NA	1	554	A2	Buchstaben	61	1
12	2	751	Baseline	NA	NA	1	673	A1	Zahlen	62	2
12	1	827	Baseline	NA	NA	1	544	A2	Buchstaben	63	2
12	1	687	Baseline	NA	NA	1	603	A1	Zahlen	64	2
12	1	631	Baseline	NA	NA	1	797	A1	Zahlen	65	1
12	1	576	Baseline	NA	NA	1	710	A1	Zahlen	66	1
12	1	654	Baseline	NA	NA	1	473	A2	Buchstaben	67	2
12	1	683	Baseline	NA	NA	1	491	A2	Buchstaben	68	1
12	2	609	Baseline	NA	NA	1	543	A1	Zahlen	69	2
12	1	486	Baseline	NA	NA	0	696	A1	Zahlen	70	1
12	1	664	Baseline	NA	NA	1	502	A1	Zahlen	71	1
12	1	909	Baseline	NA	NA	1	620	A1	Zahlen	72	1
12	1	512	Baseline	NA	NA	1	540	A2	Buchstaben	73	2
12	2	813	Baseline	NA	NA	0	416	A2	Buchstaben	74	1
12	1	568	Baseline	NA	NA	1	676	A1	Zahlen	75	2
12	1	571	Baseline	NA	NA	1	511	A2	Buchstaben	76	2
12	1	622	Baseline	NA	NA	1	371	A2	Buchstaben	77	1
12	1	499	Baseline	NA	NA	1	481	A2	Buchstaben	78	1
12	1	472	Baseline	NA	NA	1	396	A2	Buchstaben	79	1
12	2	657	Baseline	NA	NA	1	653	A1	Zahlen	80	2
12	1	441	Baseline	NA	NA	1	825	A1	Zahlen	81	1
12	1	615	Baseline	NA	NA	1	394	A2	Buchstaben	82	2
12	1	643	Baseline	NA	NA	1	702	A2	Buchstaben	83	1
12	1	381	Baseline	NA	NA	0	556	A1	Zahlen	84	2
12	2	870	Baseline	NA	NA	1	622	A2	Buchstaben	85	2
12	1	822	Baseline	NA	NA	1	593	A2	Buchstaben	86	1
12	1	471	Baseline	NA	NA	1	1182	A1	Zahlen	87	2
12	1	580	Baseline	NA	NA	1	594	A1	Zahlen	88	1
12	1	377	Baseline	NA	NA	1	343	A2	Buchstaben	89	2
12	1	458	Baseline	NA	NA	1	684	A1	Zahlen	90	2
12	2	609	Baseline	NA	NA	1	626	A2	Buchstaben	91	2
12	1	1418	Baseline	NA	NA	1	768	A2	Buchstaben	92	1
12	1	510	Baseline	NA	NA	1	542	A2	Buchstaben	93	1
12	1	415	Baseline	NA	NA	1	572	A1	Zahlen	94	2
12	1	426	Baseline	NA	NA	1	544	A2	Buchstaben	95	2
12	2	646	Baseline	NA	NA	1	518	A1	Zahlen	96	2
12	1	554	Baseline	NA	NA	1	461	A1	Zahlen	97	1
12	1	291	Baseline	NA	NA	1	569	A2	Buchstaben	98	2
12	1	642	Baseline	NA	NA	1	521	A2	Buchstaben	99	1
12	1	560	Baseline	NA	NA	1	639	A2	Buchstaben	100	1
12	1	578	Baseline	NA	NA	1	564	A1	Zahlen	101	2
12	2	566	Baseline	NA	NA	1	475	A2	Buchstaben	102	2
12	1	547	Baseline	NA	NA	1	508	A1	Zahlen	103	2
12	1	551	Baseline	NA	NA	1	581	A1	Zahlen	104	1
12	1	600	Baseline	NA	NA	1	598	A2	Buchstaben	105	2
12	1	560	Baseline	NA	NA	1	510	A2	Buchstaben	106	1
12	1	450	Baseline	NA	NA	1	614	A1	Zahlen	107	2
12	2	2102	Baseline	NA	NA	1	547	A2	Buchstaben	108	2
12	1	485	Baseline	NA	NA	1	419	A1	Zahlen	109	2
12	1	513	Baseline	NA	NA	1	640	A2	Buchstaben	110	2
12	1	498	Baseline	NA	NA	1	463	A2	Buchstaben	111	1
12	1	551	Baseline	NA	NA	1	690	A1	Zahlen	112	2
12	1	486	Baseline	NA	NA	1	589	A2	Buchstaben	113	2
12	1	516	Baseline	NA	NA	1	384	A2	Buchstaben	114	1
12	2	752	Baseline	NA	NA	0	498	A1	Zahlen	115	2
12	1	453	Baseline	NA	NA	1	463	A1	Zahlen	116	1
12	1	555	Baseline	NA	NA	0	368	A1	Zahlen	117	1
12	1	583	Baseline	NA	NA	1	545	A2	Buchstaben	118	2
12	1	681	Baseline	NA	NA	1	633	A2	Buchstaben	119	1
12	2	619	Baseline	NA	NA	1	696	A1	Zahlen	120	2
12	1	775	Baseline	NA	NA	1	384	A2	Buchstaben	121	2
12	1	586	Baseline	NA	NA	0	378	A1	Zahlen	122	2
12	1	436	Baseline	NA	NA	1	322	A1	Zahlen	123	1
12	1	566	Baseline	NA	NA	1	607	A2	Buchstaben	124	2
12	2	663	Baseline	NA	NA	1	737	A1	Zahlen	125	2
12	1	635	Baseline	NA	NA	1	644	A1	Zahlen	126	1
12	1	456	Baseline	NA	NA	1	735	A1	Zahlen	127	1
12	1	476	Baseline	NA	NA	1	529	A1	Zahlen	128	1
12	1	767	Baseline	NA	NA	1	641	A2	Buchstaben	129	2
12	1	2399	Baseline	NA	NA	1	521	A2	Buchstaben	130	1
12	2	637	Baseline	NA	NA	1	661	A1	Zahlen	131	2
12	1	535	Baseline	NA	NA	0	546	A1	Zahlen	132	1
12	1	502	Baseline	NA	NA	0	412	A1	Zahlen	133	1
12	1	575	Baseline	NA	NA	1	632	A1	Zahlen	134	1
12	1	583	Baseline	NA	NA	1	645	A2	Buchstaben	135	2
12	1	628	Baseline	NA	NA	1	1015	A1	Zahlen	136	2
12	1	610	Baseline	NA	NA	1	555	A1	Zahlen	137	1
12	2	383	Baseline	NA	NA	1	641	A2	Buchstaben	138	2
12	1	888	Baseline	NA	NA	1	598	A2	Buchstaben	139	1
12	1	578	Baseline	NA	NA	0	435	A2	Buchstaben	140	1
12	1	552	Baseline	NA	NA	1	775	A1	Zahlen	141	2
12	2	955	Baseline	NA	NA	1	607	A2	Buchstaben	142	2
12	1	550	Baseline	NA	NA	1	657	A1	Zahlen	143	2
12	1	540	Baseline	NA	NA	1	746	A1	Zahlen	144	1
12	1	454	Baseline	NA	NA	1	580	A1	Zahlen	145	1
12	1	1115	Baseline	NA	NA	1	538	A2	Buchstaben	146	2
12	2	1242	Baseline	NA	NA	1	575	A2	Buchstaben	147	1
12	1	1094	Baseline	NA	NA	1	665	A2	Buchstaben	148	1
12	1	627	Baseline	NA	NA	1	495	A2	Buchstaben	149	1
12	1	551	Baseline	NA	NA	0	411	A2	Buchstaben	150	1
12	1	498	Baseline	NA	NA	1	924	A1	Zahlen	151	2
12	1	699	Baseline	NA	NA	1	962	A1	Zahlen	152	1
12	1	693	Baseline	NA	NA	1	661	A1	Zahlen	153	1
12	2	818	Baseline	NA	NA	1	526	A2	Buchstaben	154	2
12	1	489	Baseline	NA	NA	1	551	A1	Zahlen	155	2
12	1	599	Baseline	NA	NA	1	543	A2	Buchstaben	156	2
12	1	497	Baseline	NA	NA	1	471	A2	Buchstaben	157	1
12	1	700	Baseline	NA	NA	1	854	A2	Buchstaben	158	1
12	1	539	Baseline	NA	NA	1	442	A2	Buchstaben	159	1
12	1	625	Baseline	NA	NA	1	464	A1	Zahlen	160	2
12	2	630	Baseline	NA	NA	1	472	A1	Zahlen	161	1
12	1	701	Baseline	NA	NA	1	321	A1	Zahlen	162	1
12	1	542	Baseline	NA	NA	0	360	A2	Buchstaben	163	2
12	1	436	Baseline	NA	NA	1	491	A1	Zahlen	164	2
12	1	668	Baseline	NA	NA	1	391	A1	Zahlen	165	1
12	2	513	Baseline	NA	NA	1	517	A1	Zahlen	166	1
12	1	490	Baseline	NA	NA	1	451	A1	Zahlen	167	1
12	1	588	Baseline	NA	NA	0	433	A1	Zahlen	168	1
12	1	702	Baseline	NA	NA	1	513	A2	Buchstaben	169	2
12	1	412	Baseline	NA	NA	1	469	A1	Zahlen	170	2
12	1	405	Baseline	NA	NA	1	1249	A1	Zahlen	171	1
12	2	766	Baseline	NA	NA	1	538	A2	Buchstaben	172	2
12	1	507	Baseline	NA	NA	1	700	A1	Zahlen	173	2
12	1	514	Baseline	NA	NA	1	454	A2	Buchstaben	174	2
12	1	2006	Test	2	0	1	577	A2	Buchstaben	1	2
12	1	427	Test	2	3	1	404	A1	Zahlen	2	2
12	1	407	Test	1	4	0	362	A1	Zahlen	3	1
12	2	488	Test	2	2	1	597	A1	Zahlen	4	1
12	1	403	Test	1	4	0	301	A2	Buchstaben	5	2
12	1	342	Test	1	1	0	279	A2	Buchstaben	6	1
12	1	394	Test	1	1	0	320	A2	Buchstaben	7	1
12	2	648	Test	2	2	1	435	A1	Zahlen	8	2
12	1	428	Test	1	4	1	438	A1	Zahlen	9	1
12	1	425	Test	2	2	1	489	A2	Buchstaben	10	2
12	1	366	Test	2	3	1	507	A1	Zahlen	11	2
12	2	452	Test	2	3	1	455	A2	Buchstaben	12	2
12	1	421	Test	1	4	1	394	A1	Zahlen	13	2
12	1	326	Test	1	1	1	466	A2	Buchstaben	14	2
12	1	425	Test	2	2	1	376	A1	Zahlen	15	2
12	2	429	Test	2	3	1	456	A2	Buchstaben	16	2
12	1	438	Test	1	4	1	484	A1	Zahlen	17	2
12	1	437	Test	1	1	0	541	A1	Zahlen	18	1
12	1	392	Test	1	1	0	349	A1	Zahlen	19	1
12	1	421	Test	2	2	1	543	A2	Buchstaben	20	2
12	1	428	Test	1	4	1	545	A2	Buchstaben	21	1
12	2	454	Test	2	2	1	517	A1	Zahlen	22	2
12	1	376	Test	2	3	0	538	A1	Zahlen	23	1
12	1	444	Test	1	4	1	680	A1	Zahlen	24	1
12	1	884	Test	2	2	1	435	A2	Buchstaben	25	2
12	1	441	Test	2	3	1	511	A1	Zahlen	26	2
12	2	590	Test	2	3	1	411	A2	Buchstaben	27	2
12	1	386	Test	1	4	1	442	A2	Buchstaben	28	1
12	1	362	Test	1	1	0	406	A2	Buchstaben	29	1
12	1	343	Test	2	2	1	478	A1	Zahlen	30	2
12	1	379	Test	1	4	1	507	A2	Buchstaben	31	2
12	2	398	Test	2	2	1	562	A1	Zahlen	32	2
12	1	348	Test	1	4	0	359	A1	Zahlen	33	1
12	1	338	Test	2	2	0	409	A2	Buchstaben	34	2
12	1	365	Test	2	3	1	335	A2	Buchstaben	35	1
12	1	418	Test	2	3	1	456	A2	Buchstaben	36	1
12	1	358	Test	2	3	1	398	A2	Buchstaben	37	1
12	2	515	Test	2	3	1	483	A2	Buchstaben	38	1
12	1	386	Test	1	4	1	586	A1	Zahlen	39	2
12	1	394	Test	1	1	1	569	A1	Zahlen	40	1
12	1	683	Test	1	1	1	546	A2	Buchstaben	41	2
12	1	358	Test	1	1	0	477	A2	Buchstaben	42	1
12	2	440	Test	2	2	1	398	A2	Buchstaben	43	1
12	1	343	Test	2	3	1	527	A1	Zahlen	44	2
12	1	382	Test	2	3	1	438	A2	Buchstaben	45	2
12	1	339	Test	1	4	1	354	A2	Buchstaben	46	1
12	1	374	Test	1	1	1	521	A1	Zahlen	47	2
12	2	434	Test	2	2	0	349	A2	Buchstaben	48	2
12	1	374	Test	2	3	1	463	A1	Zahlen	49	2
12	1	362	Test	2	3	1	537	A2	Buchstaben	50	2
12	1	371	Test	1	4	1	462	A2	Buchstaben	51	1
12	1	382	Test	2	2	0	549	A1	Zahlen	52	2
12	1	446	Test	2	3	1	420	A1	Zahlen	53	1
12	2	579	Test	2	3	1	355	A2	Buchstaben	54	2
12	1	710	Test	2	3	0	400	A1	Zahlen	55	2
12	1	604	Test	2	3	1	420	A1	Zahlen	56	1
12	1	373	Test	2	3	1	547	A2	Buchstaben	57	2
12	2	408	Test	2	3	0	376	A2	Buchstaben	58	1
12	1	447	Test	1	4	1	366	A1	Zahlen	59	2
12	1	482	Test	1	1	0	426	A1	Zahlen	60	1
12	1	412	Test	2	2	0	417	A2	Buchstaben	61	2
12	1	1171	Test	2	3	1	656	A1	Zahlen	62	2
12	1	423	Test	2	3	1	531	A1	Zahlen	63	1
12	2	517	Test	2	3	0	522	A1	Zahlen	64	1
12	1	438	Test	1	4	1	445	A2	Buchstaben	65	2
12	1	433	Test	1	1	1	588	A2	Buchstaben	66	1
12	1	449	Test	2	2	1	538	A2	Buchstaben	67	1
12	1	402	Test	1	4	1	475	A2	Buchstaben	68	1
12	1	373	Test	2	2	1	494	A2	Buchstaben	69	1
12	2	474	Test	2	3	0	804	A1	Zahlen	70	2
12	1	567	Test	1	4	1	323	A2	Buchstaben	71	2
12	1	390	Test	1	1	1	704	A1	Zahlen	72	2
12	1	374	Test	1	1	1	482	A2	Buchstaben	73	2
12	1	337	Test	1	1	1	408	A2	Buchstaben	74	1
12	1	438	Test	1	1	1	595	A1	Zahlen	75	2
12	2	484	Test	2	2	1	474	A1	Zahlen	76	1
12	1	363	Test	2	3	1	408	A2	Buchstaben	77	2
12	1	408	Test	2	3	1	524	A2	Buchstaben	78	1
12	1	274	Test	1	4	1	628	A1	Zahlen	79	2
12	1	524	Test	2	2	1	439	A2	Buchstaben	80	2
12	2	464	Test	2	3	1	422	A2	Buchstaben	81	1
12	1	1896	Test	1	4	1	351	A2	Buchstaben	82	1
12	1	1503	Test	1	1	0	593	A2	Buchstaben	83	1
12	1	352	Test	1	1	1	527	A1	Zahlen	84	2
12	1	468	Test	1	1	0	511	A2	Buchstaben	85	2
12	2	523	Test	2	2	1	358	A1	Zahlen	86	2
12	1	534	Test	1	4	0	374	A2	Buchstaben	87	2
12	1	173	Test	1	1	1	715	A1	Zahlen	88	2
12	1	368	Test	2	2	1	553	A1	Zahlen	89	1
12	1	574	Test	2	3	1	519	A2	Buchstaben	90	2
12	1	998	Test	2	3	1	366	A2	Buchstaben	91	1
12	2	760	Test	2	3	1	423	A1	Zahlen	92	2
12	1	408	Test	1	4	1	457	A2	Buchstaben	93	2
12	1	499	Test	1	1	0	400	A2	Buchstaben	94	1
12	1	418	Test	2	2	1	613	A1	Zahlen	95	2
12	1	463	Test	1	4	1	466	A2	Buchstaben	96	2
12	1	458	Test	2	2	1	450	A1	Zahlen	97	2
12	2	540	Test	2	3	1	473	A1	Zahlen	98	1
12	1	380	Test	2	3	1	422	A2	Buchstaben	99	2
12	1	341	Test	2	3	1	556	A2	Buchstaben	100	1
12	1	423	Test	2	3	1	594	A1	Zahlen	101	2
12	1	739	Test	1	4	1	538	A2	Buchstaben	102	2
12	2	820	Test	2	2	0	526	A1	Zahlen	103	2
12	1	377	Test	1	4	1	694	A1	Zahlen	104	1
12	1	503	Test	1	1	1	426	A1	Zahlen	105	1
12	1	362	Test	1	1	1	877	A1	Zahlen	106	1
12	1	590	Test	1	1	1	442	A2	Buchstaben	107	2
12	2	1124	Test	2	2	0	535	A1	Zahlen	108	2
12	1	470	Test	2	3	1	492	A1	Zahlen	109	1
12	1	502	Test	2	3	1	413	A1	Zahlen	110	1
12	1	507	Test	1	4	0	412	A2	Buchstaben	111	2
12	1	456	Test	1	1	1	484	A1	Zahlen	112	2
12	1	463	Test	2	2	1	440	A2	Buchstaben	113	2
12	2	615	Test	2	3	1	432	A1	Zahlen	114	2
12	1	354	Test	1	4	1	403	A2	Buchstaben	115	2
12	1	421	Test	1	1	1	648	A1	Zahlen	116	2
12	1	359	Test	1	1	1	374	A2	Buchstaben	117	2
12	1	550	Test	2	2	0	371	A2	Buchstaben	118	1
12	1	343	Test	1	4	1	512	A2	Buchstaben	119	1
12	2	469	Test	2	2	1	437	A1	Zahlen	120	2
12	1	449	Test	2	3	0	369	A2	Buchstaben	121	2
12	1	1029	Test	2	3	1	604	A1	Zahlen	122	2
12	1	383	Test	2	3	1	480	A2	Buchstaben	123	2
12	1	396	Test	2	3	1	451	A1	Zahlen	124	2
12	2	562	Test	2	3	1	634	A1	Zahlen	125	1
12	1	494	Test	2	3	1	577	A1	Zahlen	126	1
12	1	411	Test	2	3	1	352	A2	Buchstaben	127	2
12	1	397	Test	1	4	1	472	A1	Zahlen	128	2
12	2	487	Test	2	2	1	459	A1	Zahlen	129	1
12	1	491	Test	2	3	1	492	A2	Buchstaben	130	2
12	1	426	Test	2	3	1	469	A2	Buchstaben	131	1
12	1	383	Test	2	3	1	463	A1	Zahlen	132	2
12	1	442	Test	1	4	1	419	A1	Zahlen	133	1
12	2	468	Test	2	2	1	488	A2	Buchstaben	134	2
12	1	377	Test	2	3	1	436	A1	Zahlen	135	2
12	1	500	Test	2	3	1	452	A2	Buchstaben	136	2
12	1	453	Test	2	3	1	555	A1	Zahlen	137	2
12	1	479	Test	2	3	1	411	A2	Buchstaben	138	2
12	1	971	Test	1	4	1	517	A2	Buchstaben	139	1
12	2	687	Test	2	2	1	886	A1	Zahlen	140	2
12	1	647	Test	2	3	1	476	A2	Buchstaben	141	2
12	1	541	Test	2	3	1	602	A1	Zahlen	142	2
12	1	439	Test	1	4	1	523	A2	Buchstaben	143	2
12	1	525	Test	1	1	1	465	A2	Buchstaben	144	1
12	2	490	Test	2	2	1	405	A1	Zahlen	145	2
12	1	484	Test	2	3	1	533	A1	Zahlen	146	1
12	1	446	Test	2	3	1	425	A2	Buchstaben	147	2
12	1	409	Test	2	3	1	420	A2	Buchstaben	148	1
12	1	545	Test	2	3	1	444	A1	Zahlen	149	2
12	2	526	Test	2	3	1	619	A1	Zahlen	150	1
12	1	367	Test	2	3	0	387	A1	Zahlen	151	1
12	1	329	Test	1	4	0	436	A1	Zahlen	152	1
12	1	394	Test	1	1	1	399	A1	Zahlen	153	1
12	1	328	Test	1	1	1	464	A1	Zahlen	154	1
12	1	888	Test	2	2	0	372	A2	Buchstaben	155	2
12	1	365	Test	2	3	1	333	A2	Buchstaben	156	1
12	2	590	Test	2	3	1	533	A2	Buchstaben	157	1
12	1	382	Test	2	3	0	451	A2	Buchstaben	158	1
12	1	376	Test	2	3	0	341	A2	Buchstaben	159	1
12	1	424	Test	2	3	1	494	A1	Zahlen	160	2
12	1	509	Test	2	3	1	421	A2	Buchstaben	161	2
12	1	358	Test	2	3	1	413	A1	Zahlen	162	2
12	1	452	Test	2	3	1	398	A2	Buchstaben	163	2
12	2	634	Test	2	3	0	457	A2	Buchstaben	164	1
12	1	407	Test	1	4	1	419	A1	Zahlen	165	2
12	1	632	Test	2	2	1	524	A1	Zahlen	166	1
12	1	452	Test	2	3	1	354	A2	Buchstaben	167	2
12	1	64	Test	2	3	1	741	A1	Zahlen	168	2
12	2	433	Test	2	3	1	515	A2	Buchstaben	169	2
12	1	486	Test	1	4	1	508	A2	Buchstaben	170	1
12	1	566	Test	2	2	0	416	A2	Buchstaben	171	1
12	1	422	Test	1	4	0	385	A2	Buchstaben	172	1
12	1	390	Test	1	1	1	477	A2	Buchstaben	173	1
12	2	483	Test	2	2	1	452	A2	Buchstaben	174	1
12	1	445	Test	1	4	1	545	A1	Zahlen	175	2
12	1	705	Test	1	1	1	371	A2	Buchstaben	176	2
12	1	467	Test	2	2	1	401	A1	Zahlen	177	2
12	1	467	Test	2	3	1	435	A1	Zahlen	178	1
12	1	424	Test	2	3	1	453	A2	Buchstaben	179	2
12	2	444	Test	2	3	1	434	A2	Buchstaben	180	1
12	1	393	Test	2	3	1	629	A2	Buchstaben	181	1
12	1	451	Test	1	4	0	349	A1	Zahlen	182	2
12	1	433	Test	2	2	1	475	A2	Buchstaben	183	2
12	2	414	Test	2	3	1	483	A2	Buchstaben	184	1
12	1	445	Test	1	4	1	496	A2	Buchstaben	185	1
12	1	626	Test	2	2	1	379	A2	Buchstaben	186	1
12	1	461	Test	2	3	1	427	A1	Zahlen	187	2
12	1	553	Test	2	3	1	418	A1	Zahlen	188	1
12	2	490	Test	2	3	0	495	A1	Zahlen	189	1
12	1	338	Test	1	4	1	497	A1	Zahlen	190	1
12	1	393	Test	2	2	1	678	A1	Zahlen	191	1
12	1	396	Test	2	3	1	449	A1	Zahlen	192	1
12	1	624	Test	2	3	1	463	A2	Buchstaben	193	2
12	1	529	Test	2	3	1	455	A1	Zahlen	194	2
12	2	523	Test	2	3	1	486	A1	Zahlen	195	1
12	1	351	Test	1	4	1	534	A1	Zahlen	196	1
12	1	414	Test	1	1	1	413	A2	Buchstaben	197	2
12	1	404	Test	1	1	1	477	A2	Buchstaben	198	1
12	1	451	Test	1	1	1	549	A2	Buchstaben	199	1
12	2	457	Test	2	2	1	461	A1	Zahlen	200	2
12	1	598	Test	1	4	1	451	A2	Buchstaben	201	2
12	1	592	Test	1	1	1	414	A2	Buchstaben	202	1
12	1	420	Test	1	1	1	499	A1	Zahlen	203	2
12	1	392	Test	1	1	1	501	A1	Zahlen	204	1
12	1	304	Test	1	1	1	541	A1	Zahlen	205	1
12	2	506	Test	2	2	1	555	A2	Buchstaben	206	2
12	1	378	Test	1	4	1	507	A1	Zahlen	207	2
12	1	343	Test	2	2	1	610	A1	Zahlen	208	1
12	1	396	Test	2	3	1	496	A2	Buchstaben	209	2
12	1	342	Test	2	3	1	531	A1	Zahlen	210	2
12	2	364	Test	2	3	1	491	A2	Buchstaben	211	2
12	1	535	Test	1	4	0	567	A2	Buchstaben	212	1
12	1	616	Test	2	2	0	363	A2	Buchstaben	213	1
12	1	486	Test	2	3	1	566	A2	Buchstaben	214	1
12	1	326	Test	1	4	1	500	A1	Zahlen	215	2
12	2	709	Test	2	2	1	591	A2	Buchstaben	216	2
12	1	416	Test	2	3	1	373	A2	Buchstaben	217	1
12	1	461	Test	1	4	0	356	A2	Buchstaben	218	1
12	1	428	Test	1	1	1	451	A2	Buchstaben	219	1
12	1	349	Test	1	1	1	528	A2	Buchstaben	220	1
12	2	404	Test	2	2	1	413	A2	Buchstaben	221	1
12	1	391	Test	2	3	1	470	A1	Zahlen	222	2
12	1	371	Test	2	3	1	462	A1	Zahlen	223	1
12	1	541	Test	2	3	1	620	A1	Zahlen	224	1
12	1	389	Test	1	4	1	425	A2	Buchstaben	225	2
12	1	348	Test	1	1	1	415	A1	Zahlen	226	2
12	1	318	Test	1	1	1	496	A1	Zahlen	227	1
12	2	427	Test	2	2	0	508	A1	Zahlen	228	1
12	1	318	Test	2	3	1	460	A1	Zahlen	229	1
12	1	363	Test	2	3	1	462	A1	Zahlen	230	1
12	1	462	Test	2	3	0	381	A2	Buchstaben	231	2
12	1	551	Test	2	3	1	433	A1	Zahlen	232	2
12	2	508	Test	2	3	1	498	A2	Buchstaben	233	2
12	1	287	Test	1	4	1	453	A1	Zahlen	234	2
12	1	423	Test	2	2	1	508	A2	Buchstaben	235	2
12	1	379	Test	1	4	1	469	A2	Buchstaben	236	1
12	1	457	Test	1	1	1	376	A1	Zahlen	237	2
12	1	298	Test	1	1	1	571	A1	Zahlen	238	1
12	2	444	Test	2	2	1	465	A2	Buchstaben	239	2
12	1	499	Test	2	3	0	573	A1	Zahlen	240	2
12	1	341	Test	1	4	1	575	A1	Zahlen	241	1
12	1	412	Test	1	1	1	594	A2	Buchstaben	242	2
12	1	408	Test	1	1	1	416	A2	Buchstaben	243	1
12	2	550	Test	2	2	1	530	A1	Zahlen	244	2
12	1	552	Test	2	3	1	392	A1	Zahlen	245	1
12	1	521	Test	2	3	1	490	A2	Buchstaben	246	2
12	1	419	Test	1	4	1	497	A2	Buchstaben	247	1
12	1	416	Test	1	1	0	703	A1	Zahlen	248	2
12	1	372	Test	1	1	1	506	A1	Zahlen	249	1
12	2	509	Test	2	2	0	693	A1	Zahlen	250	1
12	1	348	Test	2	3	1	415	A2	Buchstaben	251	2
12	1	426	Test	1	4	1	577	A1	Zahlen	252	2
12	1	567	Test	1	1	1	464	A2	Buchstaben	253	2
12	2	427	Test	2	2	1	693	A1	Zahlen	254	2
12	1	363	Test	2	3	1	381	A2	Buchstaben	255	2
12	1	356	Test	2	3	1	460	A1	Zahlen	256	2
12	1	480	Test	2	3	1	451	A2	Buchstaben	257	2
12	1	394	Test	2	3	1	431	A2	Buchstaben	258	1
12	2	998	Test	2	3	1	430	A1	Zahlen	259	2
12	1	421	Test	1	4	1	508	A2	Buchstaben	260	2
12	1	509	Test	2	2	0	396	A2	Buchstaben	261	1
12	1	318	Test	2	3	1	455	A2	Buchstaben	262	1
12	1	357	Test	1	4	1	539	A1	Zahlen	263	2
12	1	379	Test	2	2	1	435	A2	Buchstaben	264	2
12	2	427	Test	2	3	1	491	A2	Buchstaben	265	1
12	1	451	Test	1	4	1	455	A1	Zahlen	266	2
12	1	418	Test	1	1	1	406	A2	Buchstaben	267	2
12	1	404	Test	2	2	1	480	A1	Zahlen	268	2
12	1	524	Test	1	4	1	471	A1	Zahlen	269	1
12	1	445	Test	2	2	1	416	A2	Buchstaben	270	2
12	2	494	Test	2	3	1	692	A1	Zahlen	271	2
12	1	383	Test	1	4	1	450	A1	Zahlen	272	1
12	1	460	Test	1	1	1	428	A2	Buchstaben	273	2
12	1	425	Test	2	2	1	482	A1	Zahlen	274	2
12	1	462	Test	1	4	0	368	A1	Zahlen	275	1
12	1	267	Test	1	1	1	583	A1	Zahlen	276	1
12	1	459	Test	1	1	1	437	A2	Buchstaben	277	2
12	2	772	Test	2	2	0	415	A1	Zahlen	278	2
12	1	324	Test	2	3	0	456	A2	Buchstaben	279	2
12	1	327	Test	1	4	1	564	A1	Zahlen	280	2
12	1	510	Test	1	1	1	614	A1	Zahlen	281	1
12	1	517	Test	1	1	0	464	A1	Zahlen	282	1
12	2	666	Test	2	2	1	465	A1	Zahlen	283	1
12	1	1425	Test	2	3	1	490	A1	Zahlen	284	1
12	1	559	Test	1	4	1	569	A2	Buchstaben	285	2
12	1	340	Test	1	1	1	541	A1	Zahlen	286	2
12	1	2590	Test	2	2	1	462	A2	Buchstaben	287	2
12	1	458	Test	2	3	1	430	A2	Buchstaben	288	1
12	2	490	Test	2	3	1	496	A1	Zahlen	289	2
12	1	611	Test	1	4	1	549	A1	Zahlen	290	1
12	1	376	Test	1	1	1	580	A2	Buchstaben	291	2
12	1	458	Test	2	2	1	522	A2	Buchstaben	292	1
12	1	369	Test	2	3	1	447	A2	Buchstaben	293	1
12	1	491	Test	2	3	1	593	A1	Zahlen	294	2
12	1	362	Test	2	3	1	481	A1	Zahlen	295	1
12	2	491	Test	2	3	1	588	A1	Zahlen	296	1
12	1	478	Test	2	3	1	550	A2	Buchstaben	297	2
12	1	355	Test	2	3	0	346	A1	Zahlen	298	2
12	1	391	Test	2	3	1	355	A1	Zahlen	299	1
12	1	486	Test	1	4	0	344	A2	Buchstaben	300	2
12	2	572	Test	2	2	1	472	A1	Zahlen	301	2
12	1	530	Test	1	4	1	445	A1	Zahlen	302	1
12	1	584	Test	1	1	1	568	A1	Zahlen	303	1
12	1	429	Test	1	1	1	582	A1	Zahlen	304	1
12	1	555	Test	2	2	1	509	A2	Buchstaben	305	2
12	1	326	Test	2	3	1	481	A1	Zahlen	306	2
12	1	871	Test	1	4	0	503	A2	Buchstaben	307	2
12	2	648	Test	2	2	1	518	A1	Zahlen	308	2
12	1	529	Test	2	3	1	396	A2	Buchstaben	309	2
12	1	344	Test	1	4	0	377	A1	Zahlen	310	2
12	1	578	Test	2	2	1	426	A1	Zahlen	311	1
12	1	586	Test	2	3	1	385	A2	Buchstaben	312	2
12	1	498	Test	2	3	1	446	A1	Zahlen	313	2
12	2	689	Test	2	3	0	494	A1	Zahlen	314	1
12	1	455	Test	2	3	1	468	A1	Zahlen	315	1
12	1	720	Test	1	4	1	526	A1	Zahlen	316	1
12	1	546	Test	2	2	1	526	A1	Zahlen	317	1
12	1	376	Test	1	4	1	548	A1	Zahlen	318	1
12	1	323	Test	1	1	1	407	A1	Zahlen	319	1
12	1	328	Test	2	2	1	487	A1	Zahlen	320	1
12	2	480	Test	2	3	1	484	A1	Zahlen	321	1
12	1	306	Test	1	4	0	693	A1	Zahlen	322	1
12	1	586	Test	1	1	1	498	A2	Buchstaben	323	2
12	1	298	Test	2	2	1	559	A1	Zahlen	324	2
12	1	344	Test	2	3	1	483	A1	Zahlen	325	1
12	2	407	Test	2	3	0	463	A1	Zahlen	326	1
12	1	405	Test	1	4	1	559	A2	Buchstaben	327	2
12	1	403	Test	1	1	0	419	A2	Buchstaben	328	1
12	1	442	Test	1	1	1	479	A2	Buchstaben	329	1
12	1	347	Test	2	2	1	546	A1	Zahlen	330	2
12	2	587	Test	2	3	0	453	A1	Zahlen	331	1
12	1	478	Test	2	3	1	440	A2	Buchstaben	332	2
12	1	341	Test	1	4	1	429	A2	Buchstaben	333	1
12	1	369	Test	2	2	0	493	A2	Buchstaben	334	1
12	1	361	Test	1	4	1	403	A2	Buchstaben	335	1
12	2	721	Test	2	2	1	442	A1	Zahlen	336	2
12	1	364	Test	1	4	1	623	A1	Zahlen	337	1
12	1	371	Test	1	1	0	410	A1	Zahlen	338	1
12	1	391	Test	2	2	1	605	A1	Zahlen	339	1
12	1	382	Test	2	3	1	441	A1	Zahlen	340	1
12	1	340	Test	1	4	1	515	A2	Buchstaben	341	2
12	1	598	Test	1	1	1	523	A2	Buchstaben	342	1
12	2	483	Test	2	2	1	509	A1	Zahlen	343	2
12	1	405	Test	1	4	1	533	A1	Zahlen	344	1
12	1	337	Test	1	1	1	440	A1	Zahlen	345	1
12	1	555	Test	2	2	1	501	A1	Zahlen	346	1
12	1	355	Test	2	3	0	450	A1	Zahlen	347	1
12	1	525	Test	1	4	1	545	A1	Zahlen	348	1
12	2	661	Test	2	2	1	467	A1	Zahlen	349	1
12	1	1696	Test	1	4	1	451	A2	Buchstaben	350	2
12	1	475	Test	1	1	0	546	A1	Zahlen	351	2
12	1	441	Test	1	1	1	448	A2	Buchstaben	352	2
13	1	585	Baseline	NA	NA	1	980	A2	Buchstaben	1	2
13	1	556	Baseline	NA	NA	1	576	A1	Zahlen	2	2
13	1	554	Baseline	NA	NA	1	660	A1	Zahlen	3	1
13	2	836	Baseline	NA	NA	1	657	A2	Buchstaben	4	2
13	1	562	Baseline	NA	NA	1	618	A2	Buchstaben	5	1
13	1	516	Baseline	NA	NA	0	645	A2	Buchstaben	6	1
13	1	587	Baseline	NA	NA	1	533	A2	Buchstaben	7	1
13	1	603	Baseline	NA	NA	1	474	A2	Buchstaben	8	1
13	1	541	Baseline	NA	NA	1	708	A1	Zahlen	9	2
13	2	659	Baseline	NA	NA	1	1044	A2	Buchstaben	10	2
13	1	499	Baseline	NA	NA	1	565	A2	Buchstaben	11	1
13	1	599	Baseline	NA	NA	1	413	A1	Zahlen	12	2
13	1	611	Baseline	NA	NA	1	621	A1	Zahlen	13	1
13	1	378	Baseline	NA	NA	1	569	A1	Zahlen	14	1
13	1	995	Baseline	NA	NA	1	717	A1	Zahlen	15	1
13	2	909	Baseline	NA	NA	1	556	A2	Buchstaben	16	2
13	1	484	Baseline	NA	NA	1	370	A2	Buchstaben	17	1
13	1	542	Baseline	NA	NA	0	441	A1	Zahlen	18	2
13	1	509	Baseline	NA	NA	0	421	A2	Buchstaben	19	2
13	1	461	Baseline	NA	NA	1	713	A2	Buchstaben	20	1
13	1	546	Baseline	NA	NA	1	565	A1	Zahlen	21	2
13	1	439	Baseline	NA	NA	1	802	A2	Buchstaben	22	2
13	2	762	Baseline	NA	NA	1	719	A2	Buchstaben	23	1
13	1	417	Baseline	NA	NA	1	858	A2	Buchstaben	24	1
13	1	707	Baseline	NA	NA	0	509	A1	Zahlen	25	2
13	1	481	Baseline	NA	NA	1	639	A2	Buchstaben	26	2
13	2	698	Baseline	NA	NA	1	626	A2	Buchstaben	27	1
13	1	467	Baseline	NA	NA	1	542	A2	Buchstaben	28	1
13	1	655	Baseline	NA	NA	1	708	A1	Zahlen	29	2
13	1	585	Baseline	NA	NA	1	594	A2	Buchstaben	30	2
13	1	1586	Baseline	NA	NA	1	859	A1	Zahlen	31	2
13	2	752	Baseline	NA	NA	1	511	A1	Zahlen	32	1
13	1	493	Baseline	NA	NA	1	588	A2	Buchstaben	33	2
13	1	482	Baseline	NA	NA	1	414	A1	Zahlen	34	2
13	1	440	Baseline	NA	NA	1	525	A2	Buchstaben	35	2
13	1	544	Baseline	NA	NA	1	584	A2	Buchstaben	36	1
13	1	523	Baseline	NA	NA	1	614	A1	Zahlen	37	2
13	2	507	Baseline	NA	NA	1	620	A2	Buchstaben	38	2
13	1	368	Baseline	NA	NA	1	600	A2	Buchstaben	39	1
13	1	434	Baseline	NA	NA	1	752	A2	Buchstaben	40	1
13	1	626	Baseline	NA	NA	1	422	A1	Zahlen	41	2
13	1	360	Baseline	NA	NA	1	595	A2	Buchstaben	42	2
13	2	535	Baseline	NA	NA	1	366	A2	Buchstaben	43	1
13	1	422	Baseline	NA	NA	1	743	A2	Buchstaben	44	1
13	1	609	Baseline	NA	NA	1	711	A1	Zahlen	45	2
13	1	492	Baseline	NA	NA	1	554	A1	Zahlen	46	1
13	1	465	Baseline	NA	NA	0	370	A1	Zahlen	47	1
13	1	423	Baseline	NA	NA	1	595	A2	Buchstaben	48	2
13	1	368	Baseline	NA	NA	1	615	A2	Buchstaben	49	1
13	2	823	Baseline	NA	NA	1	832	A2	Buchstaben	50	1
13	1	646	Baseline	NA	NA	1	481	A2	Buchstaben	51	1
13	1	364	Baseline	NA	NA	1	591	A1	Zahlen	52	2
13	1	446	Baseline	NA	NA	1	404	A1	Zahlen	53	1
13	1	520	Baseline	NA	NA	0	398	A2	Buchstaben	54	2
13	2	811	Baseline	NA	NA	1	560	A2	Buchstaben	55	1
13	1	580	Baseline	NA	NA	1	525	A1	Zahlen	56	2
13	1	403	Baseline	NA	NA	1	489	A1	Zahlen	57	1
13	1	581	Baseline	NA	NA	1	552	A1	Zahlen	58	1
13	2	687	Baseline	NA	NA	1	428	A1	Zahlen	59	1
13	1	551	Baseline	NA	NA	0	483	A2	Buchstaben	60	2
13	1	541	Baseline	NA	NA	1	453	A1	Zahlen	61	2
13	1	699	Baseline	NA	NA	1	578	A2	Buchstaben	62	2
13	1	517	Baseline	NA	NA	1	758	A1	Zahlen	63	2
13	1	586	Baseline	NA	NA	1	543	A2	Buchstaben	64	2
13	2	480	Baseline	NA	NA	1	544	A1	Zahlen	65	2
13	1	497	Baseline	NA	NA	1	666	A2	Buchstaben	66	2
13	1	460	Baseline	NA	NA	1	508	A1	Zahlen	67	2
13	1	457	Baseline	NA	NA	1	579	A1	Zahlen	68	1
13	1	460	Baseline	NA	NA	0	429	A2	Buchstaben	69	2
13	2	637	Baseline	NA	NA	1	482	A1	Zahlen	70	2
13	1	883	Baseline	NA	NA	1	523	A2	Buchstaben	71	2
13	1	491	Baseline	NA	NA	1	515	A2	Buchstaben	72	1
13	1	574	Baseline	NA	NA	1	644	A1	Zahlen	73	2
13	1	573	Baseline	NA	NA	1	631	A1	Zahlen	74	1
13	1	404	Baseline	NA	NA	0	649	A2	Buchstaben	75	2
13	1	471	Baseline	NA	NA	1	549	A1	Zahlen	76	2
13	2	774	Baseline	NA	NA	1	574	A2	Buchstaben	77	2
13	1	460	Baseline	NA	NA	1	725	A1	Zahlen	78	2
13	1	397	Baseline	NA	NA	1	568	A2	Buchstaben	79	2
13	1	569	Baseline	NA	NA	1	1274	A1	Zahlen	80	2
13	1	489	Baseline	NA	NA	1	628	A2	Buchstaben	81	2
13	1	615	Baseline	NA	NA	1	639	A1	Zahlen	82	2
13	2	641	Baseline	NA	NA	1	758	A2	Buchstaben	83	2
13	1	492	Baseline	NA	NA	0	806	A2	Buchstaben	84	1
13	1	468	Baseline	NA	NA	1	823	A1	Zahlen	85	2
13	1	1685	Baseline	NA	NA	1	1015	A1	Zahlen	86	1
13	1	504	Baseline	NA	NA	1	649	A2	Buchstaben	87	2
13	2	663	Baseline	NA	NA	1	744	A1	Zahlen	88	2
13	1	568	Baseline	NA	NA	1	602	A1	Zahlen	89	1
13	1	584	Baseline	NA	NA	1	581	A1	Zahlen	90	1
13	1	428	Baseline	NA	NA	1	785	A1	Zahlen	91	1
13	2	631	Baseline	NA	NA	1	851	A2	Buchstaben	92	2
13	1	422	Baseline	NA	NA	1	864	A2	Buchstaben	93	1
13	1	411	Baseline	NA	NA	1	477	A2	Buchstaben	94	1
13	1	721	Baseline	NA	NA	1	443	A1	Zahlen	95	2
13	2	557	Baseline	NA	NA	1	646	A2	Buchstaben	96	2
13	1	650	Baseline	NA	NA	1	671	A1	Zahlen	97	2
13	1	432	Baseline	NA	NA	1	435	A1	Zahlen	98	1
13	1	439	Baseline	NA	NA	1	438	A1	Zahlen	99	1
13	1	690	Baseline	NA	NA	0	423	A2	Buchstaben	100	2
13	2	704	Baseline	NA	NA	1	458	A1	Zahlen	101	2
13	1	438	Baseline	NA	NA	1	555	A1	Zahlen	102	1
13	1	451	Baseline	NA	NA	1	331	A2	Buchstaben	103	2
13	1	443	Baseline	NA	NA	1	638	A1	Zahlen	104	2
13	1	397	Baseline	NA	NA	1	742	A2	Buchstaben	105	2
13	1	385	Baseline	NA	NA	1	670	A1	Zahlen	106	2
13	1	498	Baseline	NA	NA	1	573	A2	Buchstaben	107	2
13	2	602	Baseline	NA	NA	1	493	A2	Buchstaben	108	1
13	1	441	Baseline	NA	NA	1	586	A1	Zahlen	109	2
13	1	447	Baseline	NA	NA	1	498	A1	Zahlen	110	1
13	1	466	Baseline	NA	NA	1	523	A1	Zahlen	111	1
13	1	436	Baseline	NA	NA	1	441	A1	Zahlen	112	1
13	1	364	Baseline	NA	NA	1	833	A2	Buchstaben	113	2
13	2	729	Baseline	NA	NA	1	550	A2	Buchstaben	114	1
13	1	589	Baseline	NA	NA	1	380	A2	Buchstaben	115	1
13	1	529	Baseline	NA	NA	1	613	A1	Zahlen	116	2
13	1	676	Baseline	NA	NA	1	562	A1	Zahlen	117	1
13	1	559	Baseline	NA	NA	1	467	A2	Buchstaben	118	2
13	2	676	Baseline	NA	NA	1	818	A1	Zahlen	119	2
13	1	686	Baseline	NA	NA	1	1526	A2	Buchstaben	120	2
13	1	496	Baseline	NA	NA	1	724	A2	Buchstaben	121	1
13	1	497	Baseline	NA	NA	1	698	A2	Buchstaben	122	1
13	1	497	Baseline	NA	NA	1	503	A2	Buchstaben	123	1
13	2	816	Baseline	NA	NA	0	566	A1	Zahlen	124	2
13	1	549	Baseline	NA	NA	1	660	A1	Zahlen	125	1
13	1	459	Baseline	NA	NA	1	513	A2	Buchstaben	126	2
13	1	449	Baseline	NA	NA	1	479	A2	Buchstaben	127	1
13	1	567	Baseline	NA	NA	1	612	A1	Zahlen	128	2
13	2	589	Baseline	NA	NA	1	593	A2	Buchstaben	129	2
13	1	415	Baseline	NA	NA	1	618	A2	Buchstaben	130	1
13	1	413	Baseline	NA	NA	1	478	A2	Buchstaben	131	1
13	1	494	Baseline	NA	NA	0	494	A2	Buchstaben	132	1
13	1	501	Baseline	NA	NA	0	479	A2	Buchstaben	133	1
13	1	606	Baseline	NA	NA	1	488	A1	Zahlen	134	2
13	1	669	Baseline	NA	NA	1	601	A1	Zahlen	135	1
13	2	605	Baseline	NA	NA	1	613	A2	Buchstaben	136	2
13	1	552	Baseline	NA	NA	1	504	A1	Zahlen	137	2
13	1	498	Baseline	NA	NA	0	581	A2	Buchstaben	138	2
13	1	695	Baseline	NA	NA	1	504	A1	Zahlen	139	2
13	1	809	Baseline	NA	NA	1	691	A2	Buchstaben	140	2
13	1	616	Baseline	NA	NA	1	490	A1	Zahlen	141	2
13	1	844	Baseline	NA	NA	1	443	A1	Zahlen	142	1
13	2	636	Baseline	NA	NA	1	779	A1	Zahlen	143	1
13	1	464	Baseline	NA	NA	1	518	A1	Zahlen	144	1
13	1	535	Baseline	NA	NA	1	571	A2	Buchstaben	145	2
13	1	1250	Baseline	NA	NA	1	650	A1	Zahlen	146	2
13	1	465	Baseline	NA	NA	1	646	A2	Buchstaben	147	2
13	1	473	Baseline	NA	NA	1	521	A2	Buchstaben	148	1
13	2	661	Baseline	NA	NA	1	443	A2	Buchstaben	149	1
13	1	419	Baseline	NA	NA	1	572	A2	Buchstaben	150	1
13	1	508	Baseline	NA	NA	0	372	A2	Buchstaben	151	1
13	1	725	Baseline	NA	NA	1	584	A1	Zahlen	152	2
13	1	450	Baseline	NA	NA	0	557	A2	Buchstaben	153	2
13	1	557	Baseline	NA	NA	1	599	A2	Buchstaben	154	1
13	2	847	Baseline	NA	NA	1	702	A2	Buchstaben	155	1
13	1	596	Baseline	NA	NA	1	666	A1	Zahlen	156	2
13	1	475	Baseline	NA	NA	1	580	A1	Zahlen	157	1
13	1	461	Baseline	NA	NA	1	767	A1	Zahlen	158	1
13	1	449	Baseline	NA	NA	1	358	A1	Zahlen	159	1
13	1	425	Baseline	NA	NA	1	596	A2	Buchstaben	160	2
13	2	655	Baseline	NA	NA	1	686	A2	Buchstaben	161	1
13	1	474	Baseline	NA	NA	1	813	A1	Zahlen	162	2
13	1	459	Baseline	NA	NA	1	515	A1	Zahlen	163	1
13	1	566	Baseline	NA	NA	1	455	A1	Zahlen	164	1
13	2	572	Baseline	NA	NA	1	607	A1	Zahlen	165	1
13	1	584	Baseline	NA	NA	1	689	A2	Buchstaben	166	2
13	1	401	Baseline	NA	NA	1	590	A2	Buchstaben	167	1
13	1	456	Baseline	NA	NA	1	503	A1	Zahlen	168	2
13	1	850	Baseline	NA	NA	1	722	A2	Buchstaben	169	2
13	1	501	Baseline	NA	NA	0	452	A2	Buchstaben	170	1
13	1	556	Baseline	NA	NA	1	504	A2	Buchstaben	171	1
13	1	502	Baseline	NA	NA	1	551	A2	Buchstaben	172	1
13	1	542	Baseline	NA	NA	1	424	A1	Zahlen	173	2
13	1	535	Baseline	NA	NA	1	729	A1	Zahlen	174	1
13	1	651	Test	2	0	1	1426	A2	Buchstaben	1	2
13	1	576	Test	1	4	1	488	A2	Buchstaben	2	1
13	1	675	Test	2	2	1	436	A1	Zahlen	3	2
13	1	525	Test	1	4	1	446	A1	Zahlen	4	1
13	1	1231	Test	1	1	1	369	A1	Zahlen	5	1
13	1	711	Test	1	1	1	460	A2	Buchstaben	6	2
13	2	660	Test	2	2	1	485	A2	Buchstaben	7	1
13	1	416	Test	1	4	1	488	A1	Zahlen	8	2
13	1	455	Test	1	1	1	391	A1	Zahlen	9	1
13	1	427	Test	1	1	1	407	A2	Buchstaben	10	2
13	1	402	Test	2	2	1	321	A1	Zahlen	11	2
13	1	793	Test	2	3	1	596	A1	Zahlen	12	1
13	2	625	Test	2	3	1	345	A2	Buchstaben	13	2
13	1	382	Test	1	4	1	311	A1	Zahlen	14	2
13	1	376	Test	1	1	1	289	A2	Buchstaben	15	2
13	1	383	Test	1	1	0	386	A2	Buchstaben	16	1
13	1	410	Test	2	2	1	271	A1	Zahlen	17	2
13	2	557	Test	2	3	0	361	A1	Zahlen	18	1
13	1	676	Test	1	4	1	629	A1	Zahlen	19	1
13	1	433	Test	2	2	1	620	A1	Zahlen	20	1
13	1	451	Test	1	4	1	479	A2	Buchstaben	21	2
13	1	587	Test	1	1	1	605	A1	Zahlen	22	2
13	1	498	Test	2	2	1	525	A2	Buchstaben	23	2
13	2	471	Test	2	3	1	379	A2	Buchstaben	24	1
13	1	625	Test	1	4	1	474	A1	Zahlen	25	2
13	1	538	Test	1	1	0	498	A2	Buchstaben	26	2
13	1	472	Test	1	1	1	732	A2	Buchstaben	27	1
13	1	628	Test	1	1	1	670	A2	Buchstaben	28	1
13	2	536	Test	2	2	1	463	A2	Buchstaben	29	1
13	1	521	Test	1	4	1	664	A1	Zahlen	30	2
13	1	440	Test	1	1	1	511	A1	Zahlen	31	1
13	1	405	Test	1	1	1	551	A1	Zahlen	32	1
13	1	356	Test	2	2	0	562	A1	Zahlen	33	1
13	1	395	Test	1	4	1	583	A2	Buchstaben	34	2
13	1	389	Test	1	1	1	665	A2	Buchstaben	35	1
13	2	581	Test	2	2	0	723	A2	Buchstaben	36	1
13	1	474	Test	2	3	1	438	A2	Buchstaben	37	1
13	1	358	Test	1	4	1	535	A2	Buchstaben	38	1
13	1	474	Test	2	2	1	630	A2	Buchstaben	39	1
13	1	549	Test	2	3	1	572	A2	Buchstaben	40	1
13	1	848	Test	1	4	1	533	A1	Zahlen	41	2
13	2	863	Test	2	2	1	407	A1	Zahlen	42	1
13	1	451	Test	2	3	1	576	A2	Buchstaben	43	2
13	1	634	Test	1	4	1	479	A2	Buchstaben	44	1
13	1	722	Test	2	2	1	393	A1	Zahlen	45	2
13	2	580	Test	2	3	1	413	A1	Zahlen	46	1
13	1	668	Test	2	3	0	497	A2	Buchstaben	47	2
13	1	385	Test	1	4	1	507	A1	Zahlen	48	2
13	1	464	Test	2	2	0	433	A2	Buchstaben	49	2
13	2	634	Test	2	3	1	510	A2	Buchstaben	50	1
13	1	620	Test	1	4	1	550	A2	Buchstaben	51	1
13	1	864	Test	1	1	0	398	A2	Buchstaben	52	1
13	1	519	Test	1	1	1	757	A1	Zahlen	53	2
13	1	391	Test	2	2	1	571	A2	Buchstaben	54	2
13	1	619	Test	2	3	1	432	A1	Zahlen	55	2
13	2	550	Test	2	3	1	406	A2	Buchstaben	56	2
13	1	470	Test	1	4	1	580	A1	Zahlen	57	2
13	1	424	Test	2	2	0	369	A1	Zahlen	58	1
13	1	383	Test	1	4	1	364	A2	Buchstaben	59	2
13	2	529	Test	2	2	1	540	A2	Buchstaben	60	1
13	1	533	Test	1	4	1	923	A1	Zahlen	61	2
13	1	535	Test	1	1	1	584	A1	Zahlen	62	1
13	1	364	Test	2	2	1	475	A1	Zahlen	63	1
13	2	518	Test	2	3	1	409	A1	Zahlen	64	1
13	1	415	Test	1	4	1	519	A1	Zahlen	65	1
13	1	674	Test	1	1	1	582	A2	Buchstaben	66	2
13	1	504	Test	1	1	0	592	A2	Buchstaben	67	1
13	1	452	Test	1	1	0	451	A2	Buchstaben	68	1
13	2	678	Test	2	2	1	538	A2	Buchstaben	69	1
13	1	441	Test	2	3	1	512	A1	Zahlen	70	2
13	1	448	Test	2	3	1	399	A1	Zahlen	71	1
13	1	560	Test	1	4	1	866	A1	Zahlen	72	1
13	1	480	Test	1	1	1	735	A1	Zahlen	73	1
13	1	471	Test	2	2	1	473	A2	Buchstaben	74	2
13	2	573	Test	2	3	1	438	A2	Buchstaben	75	1
13	1	381	Test	1	4	1	461	A1	Zahlen	76	2
13	1	390	Test	1	1	1	403	A2	Buchstaben	77	2
13	1	374	Test	1	1	1	436	A1	Zahlen	78	2
13	1	356	Test	2	2	1	573	A2	Buchstaben	79	2
13	2	391	Test	2	3	1	418	A2	Buchstaben	80	1
13	1	382	Test	2	3	1	455	A1	Zahlen	81	2
13	1	373	Test	2	3	1	407	A1	Zahlen	82	1
13	1	368	Test	2	3	1	485	A1	Zahlen	83	1
13	1	443	Test	1	4	1	476	A1	Zahlen	84	1
13	1	366	Test	2	2	1	532	A1	Zahlen	85	1
13	1	405	Test	1	4	1	427	A1	Zahlen	86	1
13	2	455	Test	2	2	1	527	A2	Buchstaben	87	2
13	1	488	Test	2	3	1	623	A2	Buchstaben	88	1
13	1	394	Test	2	3	0	412	A1	Zahlen	89	2
13	1	411	Test	2	3	0	452	A2	Buchstaben	90	2
13	1	371	Test	2	3	1	515	A1	Zahlen	91	2
13	2	572	Test	2	3	1	467	A1	Zahlen	92	1
13	1	411	Test	1	4	1	519	A1	Zahlen	93	1
13	1	583	Test	2	2	0	383	A2	Buchstaben	94	2
13	1	380	Test	1	4	0	624	A2	Buchstaben	95	1
13	1	551	Test	1	1	1	493	A2	Buchstaben	96	1
13	2	521	Test	2	2	1	528	A2	Buchstaben	97	1
13	1	773	Test	2	3	1	605	A2	Buchstaben	98	1
13	1	547	Test	2	3	1	581	A2	Buchstaben	99	1
13	1	612	Test	1	4	0	363	A1	Zahlen	100	2
13	2	459	Test	2	2	1	885	A2	Buchstaben	101	2
13	1	510	Test	2	3	1	361	A2	Buchstaben	102	1
13	1	477	Test	1	4	1	633	A1	Zahlen	103	2
13	1	585	Test	2	2	1	522	A1	Zahlen	104	1
13	1	413	Test	2	3	1	588	A2	Buchstaben	105	2
13	1	588	Test	1	4	0	352	A2	Buchstaben	106	1
13	2	499	Test	2	2	1	468	A2	Buchstaben	107	1
13	1	401	Test	2	3	1	423	A1	Zahlen	108	2
13	1	529	Test	1	4	1	424	A2	Buchstaben	109	2
13	1	370	Test	2	2	1	522	A1	Zahlen	110	2
13	1	349	Test	2	3	1	461	A2	Buchstaben	111	2
13	2	336	Test	2	3	0	448	A1	Zahlen	112	2
13	1	359	Test	1	4	1	472	A2	Buchstaben	113	2
13	1	383	Test	2	2	1	508	A1	Zahlen	114	2
13	1	369	Test	1	4	1	500	A2	Buchstaben	115	2
13	1	339	Test	2	2	1	519	A2	Buchstaben	116	1
13	2	469	Test	2	3	1	602	A2	Buchstaben	117	1
13	1	738	Test	2	3	0	328	A1	Zahlen	118	2
13	1	461	Test	2	3	1	392	A2	Buchstaben	119	2
13	1	483	Test	2	3	0	407	A2	Buchstaben	120	1
13	1	418	Test	2	3	1	453	A1	Zahlen	121	2
13	2	456	Test	2	3	1	524	A2	Buchstaben	122	2
13	1	405	Test	1	4	1	532	A1	Zahlen	123	2
13	1	413	Test	1	1	1	551	A2	Buchstaben	124	2
13	1	423	Test	1	1	1	501	A2	Buchstaben	125	1
13	1	409	Test	1	1	1	522	A1	Zahlen	126	2
13	1	625	Test	1	1	1	228	A2	Buchstaben	127	2
13	1	650	Test	1	1	1	624	A2	Buchstaben	128	1
13	2	618	Test	2	2	1	531	A2	Buchstaben	129	1
13	1	434	Test	2	3	1	638	A2	Buchstaben	130	1
13	1	408	Test	1	4	1	422	A2	Buchstaben	131	1
13	1	585	Test	2	2	1	661	A1	Zahlen	132	2
13	2	605	Test	2	3	1	403	A1	Zahlen	133	1
13	1	378	Test	1	4	1	634	A1	Zahlen	134	1
13	1	350	Test	1	1	1	512	A2	Buchstaben	135	2
13	1	398	Test	1	1	1	579	A2	Buchstaben	136	1
13	1	407	Test	1	1	1	569	A2	Buchstaben	137	1
13	1	388	Test	2	2	1	466	A1	Zahlen	138	2
13	2	571	Test	2	3	0	428	A1	Zahlen	139	1
13	1	322	Test	1	4	0	518	A1	Zahlen	140	1
13	1	395	Test	1	1	1	463	A1	Zahlen	141	1
13	1	466	Test	2	2	1	457	A1	Zahlen	142	1
13	1	434	Test	2	3	1	512	A2	Buchstaben	143	2
13	2	560	Test	2	3	1	384	A2	Buchstaben	144	1
13	1	352	Test	1	4	1	460	A1	Zahlen	145	2
13	1	335	Test	1	1	1	866	A1	Zahlen	146	1
13	1	529	Test	1	1	1	604	A1	Zahlen	147	1
13	1	374	Test	1	1	1	367	A1	Zahlen	148	1
13	1	426	Test	1	1	1	471	A1	Zahlen	149	1
13	2	508	Test	2	2	1	363	A1	Zahlen	150	1
13	1	395	Test	2	3	1	543	A2	Buchstaben	151	2
13	1	353	Test	2	3	0	380	A1	Zahlen	152	2
13	1	638	Test	2	3	1	650	A1	Zahlen	153	1
13	1	335	Test	2	3	1	452	A1	Zahlen	154	1
13	1	399	Test	2	3	1	489	A1	Zahlen	155	1
13	2	445	Test	2	3	1	420	A1	Zahlen	156	1
13	1	524	Test	2	3	1	467	A1	Zahlen	157	1
13	1	334	Test	2	3	1	537	A1	Zahlen	158	1
13	1	368	Test	2	3	1	364	A2	Buchstaben	159	2
13	1	327	Test	1	4	1	338	A1	Zahlen	160	2
13	1	400	Test	1	1	1	398	A2	Buchstaben	161	2
13	1	350	Test	1	1	0	361	A1	Zahlen	162	2
13	2	481	Test	2	2	0	419	A1	Zahlen	163	1
13	1	366	Test	2	3	1	608	A2	Buchstaben	164	2
13	1	378	Test	2	3	1	483	A1	Zahlen	165	2
13	1	352	Test	2	3	0	428	A1	Zahlen	166	1
13	1	364	Test	2	3	1	524	A1	Zahlen	167	1
13	1	369	Test	2	3	1	392	A2	Buchstaben	168	2
13	2	577	Test	2	3	0	412	A1	Zahlen	169	2
13	1	340	Test	1	4	1	476	A2	Buchstaben	170	2
13	1	429	Test	2	2	1	705	A2	Buchstaben	171	1
13	1	563	Test	2	3	1	387	A2	Buchstaben	172	1
13	2	578	Test	2	3	0	427	A2	Buchstaben	173	1
13	1	474	Test	1	4	1	469	A1	Zahlen	174	2
13	1	413	Test	2	2	1	458	A1	Zahlen	175	1
13	1	488	Test	1	4	1	697	A1	Zahlen	176	1
13	1	474	Test	1	1	1	454	A2	Buchstaben	177	2
13	1	353	Test	1	1	1	475	A1	Zahlen	178	2
13	1	399	Test	1	1	1	618	A2	Buchstaben	179	2
13	2	606	Test	2	2	0	381	A1	Zahlen	180	2
13	1	654	Test	2	3	1	621	A2	Buchstaben	181	2
13	1	463	Test	2	3	0	550	A1	Zahlen	182	2
13	1	532	Test	2	3	1	361	A2	Buchstaben	183	2
13	1	430	Test	2	3	0	501	A1	Zahlen	184	2
13	2	485	Test	2	3	1	500	A2	Buchstaben	185	2
13	1	971	Test	1	4	1	528	A1	Zahlen	186	2
13	1	373	Test	1	1	1	437	A2	Buchstaben	187	2
13	1	380	Test	2	2	1	412	A1	Zahlen	188	2
13	1	524	Test	2	3	1	515	A1	Zahlen	189	1
13	1	352	Test	2	3	1	484	A1	Zahlen	190	1
13	2	492	Test	2	3	0	389	A1	Zahlen	191	1
13	1	478	Test	1	4	1	491	A2	Buchstaben	192	2
13	1	475	Test	2	2	1	617	A2	Buchstaben	193	1
13	1	323	Test	2	3	1	653	A2	Buchstaben	194	1
13	1	412	Test	2	3	0	409	A1	Zahlen	195	2
13	2	519	Test	2	3	1	579	A2	Buchstaben	196	2
13	1	391	Test	1	4	0	370	A2	Buchstaben	197	1
13	1	379	Test	2	2	1	515	A2	Buchstaben	198	1
13	1	453	Test	2	3	1	435	A1	Zahlen	199	2
13	1	488	Test	2	3	1	437	A1	Zahlen	200	1
13	2	462	Test	2	3	1	584	A2	Buchstaben	201	2
13	1	409	Test	2	3	1	447	A2	Buchstaben	202	1
13	1	362	Test	2	3	1	539	A2	Buchstaben	203	1
13	1	411	Test	2	3	1	437	A1	Zahlen	204	2
13	1	438	Test	1	4	0	356	A2	Buchstaben	205	2
13	1	376	Test	2	2	0	481	A2	Buchstaben	206	1
13	1	433	Test	1	4	1	631	A2	Buchstaben	207	1
13	2	558	Test	2	2	1	410	A2	Buchstaben	208	1
13	1	499	Test	2	3	1	644	A2	Buchstaben	209	1
13	1	521	Test	2	3	1	319	A2	Buchstaben	210	1
13	1	333	Test	2	3	0	299	A2	Buchstaben	211	1
13	1	441	Test	1	4	1	580	A2	Buchstaben	212	1
13	1	464	Test	1	1	1	449	A2	Buchstaben	213	1
13	2	689	Test	2	2	1	526	A2	Buchstaben	214	1
13	1	401	Test	2	3	1	424	A1	Zahlen	215	2
13	1	452	Test	1	4	1	571	A2	Buchstaben	216	2
13	1	445	Test	2	2	1	389	A1	Zahlen	217	2
13	1	519	Test	2	3	0	555	A2	Buchstaben	218	2
13	2	500	Test	2	3	1	353	A2	Buchstaben	219	1
13	1	603	Test	2	3	1	440	A1	Zahlen	220	2
13	1	728	Test	1	4	0	439	A1	Zahlen	221	1
13	1	376	Test	2	2	1	489	A2	Buchstaben	222	2
13	1	346	Test	2	3	1	445	A2	Buchstaben	223	1
13	1	486	Test	1	4	1	389	A1	Zahlen	224	2
13	2	547	Test	2	2	0	532	A2	Buchstaben	225	2
13	1	335	Test	1	4	1	527	A1	Zahlen	226	2
13	1	619	Test	1	1	0	629	A1	Zahlen	227	1
13	1	438	Test	2	2	1	614	A1	Zahlen	228	1
13	1	377	Test	2	3	0	393	A2	Buchstaben	229	2
13	1	353	Test	2	3	1	557	A2	Buchstaben	230	1
13	1	398	Test	1	4	0	474	A2	Buchstaben	231	1
13	2	580	Test	2	2	1	523	A2	Buchstaben	232	1
13	1	1138	Test	2	3	0	749	A1	Zahlen	233	2
13	1	400	Test	2	3	1	446	A2	Buchstaben	234	2
13	1	486	Test	1	4	1	558	A2	Buchstaben	235	1
13	1	691	Test	1	1	1	537	A2	Buchstaben	236	1
13	1	366	Test	1	1	0	492	A2	Buchstaben	237	1
13	2	93	Test	2	2	0	836	A2	Buchstaben	238	1
13	1	347	Test	2	3	1	742	A2	Buchstaben	239	1
13	1	432	Test	1	4	1	460	A2	Buchstaben	240	1
13	1	785	Test	1	1	1	643	A1	Zahlen	241	2
13	2	471	Test	2	2	1	361	A1	Zahlen	242	1
13	1	441	Test	2	3	1	576	A1	Zahlen	243	1
13	1	500	Test	2	3	1	330	A1	Zahlen	244	1
13	1	514	Test	1	4	0	444	A1	Zahlen	245	1
13	1	383	Test	1	1	0	354	A2	Buchstaben	246	2
13	2	490	Test	2	2	1	373	A1	Zahlen	247	2
13	1	437	Test	2	3	1	537	A1	Zahlen	248	1
13	1	609	Test	1	4	1	543	A1	Zahlen	249	1
13	1	618	Test	1	1	1	563	A2	Buchstaben	250	2
13	2	450	Test	2	2	0	384	A1	Zahlen	251	2
13	1	539	Test	2	3	1	357	A1	Zahlen	252	1
13	1	372	Test	2	3	1	600	A2	Buchstaben	253	2
13	1	402	Test	1	4	1	725	A1	Zahlen	254	2
13	1	367	Test	1	1	1	558	A2	Buchstaben	255	2
13	1	460	Test	1	1	1	503	A1	Zahlen	256	2
13	2	405	Test	2	2	1	537	A2	Buchstaben	257	2
13	1	403	Test	1	4	1	521	A1	Zahlen	258	2
13	1	359	Test	1	1	1	579	A2	Buchstaben	259	2
13	1	351	Test	2	2	1	402	A2	Buchstaben	260	1
13	1	299	Test	2	3	1	456	A2	Buchstaben	261	1
13	2	518	Test	2	3	1	504	A1	Zahlen	262	2
13	1	324	Test	2	3	1	380	A1	Zahlen	263	1
13	1	484	Test	1	4	1	508	A2	Buchstaben	264	2
13	1	372	Test	1	1	1	539	A1	Zahlen	265	2
13	2	422	Test	2	2	0	349	A1	Zahlen	266	1
13	1	487	Test	1	4	0	406	A1	Zahlen	267	1
13	1	441	Test	1	1	1	533	A2	Buchstaben	268	2
13	1	539	Test	1	1	1	433	A1	Zahlen	269	2
13	1	445	Test	2	2	1	548	A1	Zahlen	270	1
13	1	639	Test	1	4	1	465	A2	Buchstaben	271	2
13	2	674	Test	2	2	0	374	A1	Zahlen	272	2
13	1	551	Test	2	3	1	555	A2	Buchstaben	273	2
13	1	593	Test	1	4	1	1138	A2	Buchstaben	274	1
13	1	413	Test	2	2	1	547	A1	Zahlen	275	2
13	1	348	Test	2	3	1	388	A2	Buchstaben	276	2
13	1	803	Test	1	4	1	1376	A1	Zahlen	277	2
13	2	670	Test	2	2	1	394	A1	Zahlen	278	1
13	1	504	Test	2	3	1	626	A1	Zahlen	279	1
13	1	410	Test	2	3	1	463	A2	Buchstaben	280	2
13	1	348	Test	2	3	0	462	A2	Buchstaben	281	1
13	1	389	Test	2	3	0	503	A2	Buchstaben	282	1
13	2	472	Test	2	3	1	504	A2	Buchstaben	283	1
13	1	425	Test	1	4	1	458	A2	Buchstaben	284	1
13	1	331	Test	2	2	1	506	A2	Buchstaben	285	1
13	1	392	Test	1	4	1	1781	A2	Buchstaben	286	1
13	1	578	Test	1	1	1	645	A2	Buchstaben	287	1
13	1	452	Test	2	2	0	385	A1	Zahlen	288	2
13	2	445	Test	2	3	1	460	A2	Buchstaben	289	2
13	1	416	Test	1	4	1	536	A2	Buchstaben	290	1
13	1	446	Test	1	1	1	540	A1	Zahlen	291	2
13	1	562	Test	1	1	1	618	A1	Zahlen	292	1
13	1	349	Test	1	1	1	548	A1	Zahlen	293	1
13	2	838	Test	2	2	1	387	A1	Zahlen	294	1
13	1	398	Test	1	4	1	513	A1	Zahlen	295	1
13	1	393	Test	1	1	1	514	A1	Zahlen	296	1
13	1	338	Test	2	2	1	496	A1	Zahlen	297	1
13	2	387	Test	2	3	1	562	A1	Zahlen	298	1
13	1	382	Test	2	3	1	487	A2	Buchstaben	299	2
13	1	371	Test	1	4	1	441	A1	Zahlen	300	2
13	1	383	Test	1	1	1	672	A2	Buchstaben	301	2
13	1	393	Test	2	2	1	589	A2	Buchstaben	302	1
13	1	361	Test	2	3	1	492	A1	Zahlen	303	2
13	2	582	Test	2	3	1	574	A1	Zahlen	304	1
13	1	398	Test	2	3	0	441	A2	Buchstaben	305	2
13	1	471	Test	2	3	1	491	A1	Zahlen	306	2
13	1	391	Test	1	4	0	356	A2	Buchstaben	307	2
13	1	601	Test	1	1	1	556	A2	Buchstaben	308	1
13	1	635	Test	1	1	1	506	A1	Zahlen	309	2
13	2	593	Test	2	2	1	588	A2	Buchstaben	310	2
13	1	415	Test	1	4	1	464	A2	Buchstaben	311	1
13	1	1317	Test	1	1	1	586	A1	Zahlen	312	2
13	1	367	Test	2	2	1	633	A2	Buchstaben	313	2
13	1	492	Test	2	3	1	427	A1	Zahlen	314	2
13	1	593	Test	1	4	1	437	A1	Zahlen	315	1
13	2	581	Test	2	2	1	400	A2	Buchstaben	316	2
13	1	429	Test	2	3	0	409	A2	Buchstaben	317	1
13	1	383	Test	2	3	1	328	A1	Zahlen	318	2
13	1	332	Test	2	3	1	545	A1	Zahlen	319	1
13	2	791	Test	2	3	1	449	A1	Zahlen	320	1
13	1	397	Test	1	4	1	386	A1	Zahlen	321	1
13	1	389	Test	1	1	1	403	A1	Zahlen	322	1
13	1	416	Test	1	1	1	514	A2	Buchstaben	323	2
13	1	474	Test	1	1	1	502	A1	Zahlen	324	2
13	2	434	Test	2	2	1	342	A1	Zahlen	325	1
13	1	364	Test	2	3	1	322	A1	Zahlen	326	1
13	1	557	Test	2	3	1	545	A2	Buchstaben	327	2
13	1	360	Test	2	3	0	444	A2	Buchstaben	328	1
13	1	409	Test	2	3	0	456	A1	Zahlen	329	2
13	2	445	Test	2	3	1	625	A2	Buchstaben	330	2
13	1	426	Test	1	4	1	531	A2	Buchstaben	331	1
13	1	434	Test	2	2	1	549	A2	Buchstaben	332	1
13	1	412	Test	1	4	1	562	A2	Buchstaben	333	1
13	1	550	Test	2	2	1	479	A1	Zahlen	334	2
13	1	358	Test	2	3	1	489	A1	Zahlen	335	1
13	1	508	Test	1	4	1	506	A2	Buchstaben	336	2
13	2	481	Test	2	2	0	462	A2	Buchstaben	337	1
13	1	379	Test	2	3	1	430	A2	Buchstaben	338	1
13	1	399	Test	2	3	1	410	A1	Zahlen	339	2
13	1	506	Test	2	3	1	396	A1	Zahlen	340	1
13	1	496	Test	2	3	1	457	A2	Buchstaben	341	2
13	1	484	Test	2	3	1	488	A2	Buchstaben	342	1
13	1	436	Test	1	4	1	523	A1	Zahlen	343	2
13	2	494	Test	2	2	1	649	A1	Zahlen	344	1
13	1	415	Test	2	3	0	405	A2	Buchstaben	345	2
13	1	479	Test	1	4	1	498	A1	Zahlen	346	2
13	1	364	Test	1	1	1	451	A1	Zahlen	347	1
13	1	324	Test	1	1	1	416	A2	Buchstaben	348	2
13	1	300	Test	2	2	0	405	A2	Buchstaben	349	1
13	2	406	Test	2	3	1	524	A2	Buchstaben	350	1
13	1	352	Test	2	3	1	556	A2	Buchstaben	351	1
13	1	302	Test	2	3	1	440	A2	Buchstaben	352	1
14	1	429	Baseline	NA	NA	1	572	A1	Zahlen	1	2
14	1	394	Baseline	NA	NA	1	462	A1	Zahlen	2	1
14	1	409	Baseline	NA	NA	1	554	A1	Zahlen	3	1
14	1	937	Baseline	NA	NA	1	1547	A2	Buchstaben	4	2
14	1	427	Baseline	NA	NA	1	543	A2	Buchstaben	5	1
14	2	588	Baseline	NA	NA	1	532	A2	Buchstaben	6	1
14	1	412	Baseline	NA	NA	1	570	A1	Zahlen	7	2
14	1	558	Baseline	NA	NA	1	802	A2	Buchstaben	8	2
14	1	457	Baseline	NA	NA	1	505	A2	Buchstaben	9	1
14	1	378	Baseline	NA	NA	1	524	A2	Buchstaben	10	1
14	1	468	Baseline	NA	NA	1	717	A1	Zahlen	11	2
14	2	450	Baseline	NA	NA	1	673	A2	Buchstaben	12	2
14	1	387	Baseline	NA	NA	1	550	A2	Buchstaben	13	1
14	1	412	Baseline	NA	NA	1	515	A2	Buchstaben	14	1
14	1	501	Baseline	NA	NA	1	574	A2	Buchstaben	15	1
14	1	489	Baseline	NA	NA	1	542	A1	Zahlen	16	2
14	2	460	Baseline	NA	NA	1	576	A2	Buchstaben	17	2
14	1	425	Baseline	NA	NA	1	639	A2	Buchstaben	18	1
14	1	497	Baseline	NA	NA	1	869	A1	Zahlen	19	2
14	1	510	Baseline	NA	NA	1	587	A2	Buchstaben	20	2
14	1	419	Baseline	NA	NA	1	879	A1	Zahlen	21	2
14	1	401	Baseline	NA	NA	1	531	A1	Zahlen	22	1
14	2	578	Baseline	NA	NA	1	626	A1	Zahlen	23	1
14	1	415	Baseline	NA	NA	1	529	A2	Buchstaben	24	2
14	1	408	Baseline	NA	NA	1	526	A2	Buchstaben	25	1
14	1	522	Baseline	NA	NA	1	604	A2	Buchstaben	26	1
14	1	402	Baseline	NA	NA	1	533	A2	Buchstaben	27	1
14	1	452	Baseline	NA	NA	1	594	A2	Buchstaben	28	1
14	1	473	Baseline	NA	NA	1	535	A1	Zahlen	29	2
14	2	362	Baseline	NA	NA	1	529	A2	Buchstaben	30	2
14	1	351	Baseline	NA	NA	1	596	A1	Zahlen	31	2
14	1	414	Baseline	NA	NA	1	544	A1	Zahlen	32	1
14	1	490	Baseline	NA	NA	1	496	A2	Buchstaben	33	2
14	1	508	Baseline	NA	NA	1	510	A2	Buchstaben	34	1
14	2	349	Baseline	NA	NA	1	416	A2	Buchstaben	35	1
14	1	348	Baseline	NA	NA	1	569	A2	Buchstaben	36	1
14	1	573	Baseline	NA	NA	1	620	A1	Zahlen	37	2
14	1	385	Baseline	NA	NA	1	563	A2	Buchstaben	38	2
14	1	441	Baseline	NA	NA	1	548	A1	Zahlen	39	2
14	1	489	Baseline	NA	NA	1	520	A2	Buchstaben	40	2
14	2	299	Baseline	NA	NA	1	557	A2	Buchstaben	41	1
14	1	438	Baseline	NA	NA	1	515	A2	Buchstaben	42	1
14	1	420	Baseline	NA	NA	1	475	A1	Zahlen	43	2
14	1	363	Baseline	NA	NA	1	835	A1	Zahlen	44	1
14	1	324	Baseline	NA	NA	1	522	A2	Buchstaben	45	2
14	2	408	Baseline	NA	NA	1	1054	A1	Zahlen	46	2
14	1	476	Baseline	NA	NA	1	504	A1	Zahlen	47	1
14	1	383	Baseline	NA	NA	1	612	A1	Zahlen	48	1
14	1	438	Baseline	NA	NA	1	521	A2	Buchstaben	49	2
14	2	561	Baseline	NA	NA	1	567	A1	Zahlen	50	2
14	1	413	Baseline	NA	NA	1	555	A2	Buchstaben	51	2
14	1	514	Baseline	NA	NA	1	510	A1	Zahlen	52	2
14	1	356	Baseline	NA	NA	1	609	A1	Zahlen	53	1
14	1	418	Baseline	NA	NA	1	612	A1	Zahlen	54	1
14	2	546	Baseline	NA	NA	1	590	A1	Zahlen	55	1
14	1	463	Baseline	NA	NA	1	479	A2	Buchstaben	56	2
14	1	378	Baseline	NA	NA	1	459	A1	Zahlen	57	2
14	1	367	Baseline	NA	NA	1	485	A1	Zahlen	58	1
14	1	332	Baseline	NA	NA	1	602	A2	Buchstaben	59	2
14	1	336	Baseline	NA	NA	1	529	A2	Buchstaben	60	1
14	2	598	Baseline	NA	NA	1	556	A2	Buchstaben	61	1
14	1	367	Baseline	NA	NA	1	495	A2	Buchstaben	62	1
14	1	331	Baseline	NA	NA	1	945	A1	Zahlen	63	2
14	1	347	Baseline	NA	NA	1	471	A1	Zahlen	64	1
14	1	353	Baseline	NA	NA	1	641	A1	Zahlen	65	1
14	2	498	Baseline	NA	NA	1	468	A1	Zahlen	66	1
14	1	400	Baseline	NA	NA	1	538	A2	Buchstaben	67	2
14	1	350	Baseline	NA	NA	1	516	A1	Zahlen	68	2
14	1	413	Baseline	NA	NA	1	494	A2	Buchstaben	69	2
14	2	431	Baseline	NA	NA	1	484	A2	Buchstaben	70	1
14	1	420	Baseline	NA	NA	1	424	A1	Zahlen	71	2
14	1	371	Baseline	NA	NA	1	415	A1	Zahlen	72	1
14	1	351	Baseline	NA	NA	1	505	A1	Zahlen	73	1
14	1	419	Baseline	NA	NA	1	449	A1	Zahlen	74	1
14	1	388	Baseline	NA	NA	1	606	A1	Zahlen	75	1
14	2	439	Baseline	NA	NA	1	532	A1	Zahlen	76	1
14	1	305	Baseline	NA	NA	1	515	A1	Zahlen	77	1
14	1	278	Baseline	NA	NA	1	516	A2	Buchstaben	78	2
14	1	317	Baseline	NA	NA	1	403	A1	Zahlen	79	2
14	1	383	Baseline	NA	NA	1	496	A2	Buchstaben	80	2
14	2	376	Baseline	NA	NA	1	449	A1	Zahlen	81	2
14	1	346	Baseline	NA	NA	1	547	A1	Zahlen	82	1
14	1	292	Baseline	NA	NA	1	458	A1	Zahlen	83	1
14	1	329	Baseline	NA	NA	1	495	A1	Zahlen	84	1
14	1	364	Baseline	NA	NA	1	795	A1	Zahlen	85	1
14	1	461	Baseline	NA	NA	1	534	A2	Buchstaben	86	2
14	2	616	Baseline	NA	NA	1	564	A2	Buchstaben	87	1
14	1	415	Baseline	NA	NA	1	1022	A1	Zahlen	88	2
14	1	409	Baseline	NA	NA	1	510	A1	Zahlen	89	1
14	1	299	Baseline	NA	NA	1	656	A1	Zahlen	90	1
14	1	359	Baseline	NA	NA	1	507	A2	Buchstaben	91	2
14	1	347	Baseline	NA	NA	1	1076	A1	Zahlen	92	2
14	2	584	Baseline	NA	NA	1	528	A1	Zahlen	93	1
14	1	385	Baseline	NA	NA	1	695	A2	Buchstaben	94	2
14	1	353	Baseline	NA	NA	1	451	A2	Buchstaben	95	1
14	1	324	Baseline	NA	NA	1	505	A1	Zahlen	96	2
14	1	348	Baseline	NA	NA	1	414	A1	Zahlen	97	1
14	1	408	Baseline	NA	NA	1	784	A2	Buchstaben	98	2
14	2	570	Baseline	NA	NA	1	521	A1	Zahlen	99	2
14	1	390	Baseline	NA	NA	1	518	A2	Buchstaben	100	2
14	1	670	Baseline	NA	NA	1	602	A2	Buchstaben	101	1
14	1	348	Baseline	NA	NA	1	543	A1	Zahlen	102	2
14	1	515	Baseline	NA	NA	1	677	A2	Buchstaben	103	2
14	1	510	Baseline	NA	NA	1	595	A2	Buchstaben	104	1
14	2	554	Baseline	NA	NA	1	554	A2	Buchstaben	105	1
14	1	393	Baseline	NA	NA	1	430	A1	Zahlen	106	2
14	1	594	Baseline	NA	NA	1	432	A1	Zahlen	107	1
14	1	903	Baseline	NA	NA	1	601	A2	Buchstaben	108	2
14	1	463	Baseline	NA	NA	1	475	A2	Buchstaben	109	1
14	2	510	Baseline	NA	NA	1	596	A1	Zahlen	110	2
14	1	412	Baseline	NA	NA	1	530	A2	Buchstaben	111	2
14	1	545	Baseline	NA	NA	1	538	A2	Buchstaben	112	1
14	1	470	Baseline	NA	NA	1	513	A2	Buchstaben	113	1
14	2	459	Baseline	NA	NA	1	489	A1	Zahlen	114	2
14	1	528	Baseline	NA	NA	1	502	A2	Buchstaben	115	2
14	1	407	Baseline	NA	NA	1	533	A1	Zahlen	116	2
14	1	372	Baseline	NA	NA	1	517	A1	Zahlen	117	1
14	1	333	Baseline	NA	NA	1	509	A1	Zahlen	118	1
14	1	335	Baseline	NA	NA	1	758	A1	Zahlen	119	1
14	2	547	Baseline	NA	NA	1	491	A1	Zahlen	120	1
14	1	879	Baseline	NA	NA	1	523	A2	Buchstaben	121	2
14	1	392	Baseline	NA	NA	1	491	A2	Buchstaben	122	1
14	1	371	Baseline	NA	NA	1	474	A1	Zahlen	123	2
14	1	512	Baseline	NA	NA	1	517	A1	Zahlen	124	1
14	1	366	Baseline	NA	NA	1	460	A2	Buchstaben	125	2
14	2	507	Baseline	NA	NA	1	514	A1	Zahlen	126	2
14	1	424	Baseline	NA	NA	1	732	A1	Zahlen	127	1
14	1	439	Baseline	NA	NA	1	474	A2	Buchstaben	128	2
14	1	429	Baseline	NA	NA	1	961	A1	Zahlen	129	2
14	2	472	Baseline	NA	NA	1	493	A1	Zahlen	130	1
14	1	379	Baseline	NA	NA	1	536	A1	Zahlen	131	1
14	1	412	Baseline	NA	NA	1	419	A1	Zahlen	132	1
14	1	398	Baseline	NA	NA	1	426	A1	Zahlen	133	1
14	1	371	Baseline	NA	NA	1	524	A2	Buchstaben	134	2
14	1	420	Baseline	NA	NA	1	579	A2	Buchstaben	135	1
14	1	516	Baseline	NA	NA	1	560	A2	Buchstaben	136	1
14	2	456	Baseline	NA	NA	1	656	A2	Buchstaben	137	1
14	1	345	Baseline	NA	NA	1	453	A2	Buchstaben	138	1
14	1	365	Baseline	NA	NA	1	561	A1	Zahlen	139	2
14	1	399	Baseline	NA	NA	1	491	A2	Buchstaben	140	2
14	1	465	Baseline	NA	NA	1	479	A2	Buchstaben	141	1
14	1	476	Baseline	NA	NA	1	625	A2	Buchstaben	142	1
14	2	515	Baseline	NA	NA	1	510	A2	Buchstaben	143	1
14	1	423	Baseline	NA	NA	1	574	A1	Zahlen	144	2
14	1	336	Baseline	NA	NA	1	466	A1	Zahlen	145	1
14	1	289	Baseline	NA	NA	1	489	A1	Zahlen	146	1
14	1	495	Baseline	NA	NA	1	486	A2	Buchstaben	147	2
14	1	314	Baseline	NA	NA	1	437	A1	Zahlen	148	2
14	2	503	Baseline	NA	NA	1	473	A1	Zahlen	149	1
14	1	294	Baseline	NA	NA	1	461	A1	Zahlen	150	1
14	1	486	Baseline	NA	NA	1	700	A2	Buchstaben	151	2
14	1	515	Baseline	NA	NA	1	566	A2	Buchstaben	152	1
14	1	344	Baseline	NA	NA	1	510	A2	Buchstaben	153	1
14	1	411	Baseline	NA	NA	1	426	A1	Zahlen	154	2
14	2	570	Baseline	NA	NA	1	556	A1	Zahlen	155	1
14	1	465	Baseline	NA	NA	1	555	A2	Buchstaben	156	2
14	1	470	Baseline	NA	NA	1	434	A1	Zahlen	157	2
14	1	438	Baseline	NA	NA	1	606	A2	Buchstaben	158	2
14	1	353	Baseline	NA	NA	1	421	A1	Zahlen	159	2
14	1	456	Baseline	NA	NA	1	534	A2	Buchstaben	160	2
14	2	415	Baseline	NA	NA	1	491	A1	Zahlen	161	2
14	1	427	Baseline	NA	NA	1	490	A2	Buchstaben	162	2
14	1	430	Baseline	NA	NA	1	492	A1	Zahlen	163	2
14	1	347	Baseline	NA	NA	1	427	A1	Zahlen	164	1
14	1	367	Baseline	NA	NA	1	448	A1	Zahlen	165	1
14	1	517	Baseline	NA	NA	1	792	A2	Buchstaben	166	2
14	1	431	Baseline	NA	NA	1	522	A1	Zahlen	167	2
14	2	613	Baseline	NA	NA	1	579	A1	Zahlen	168	1
14	1	525	Baseline	NA	NA	1	471	A2	Buchstaben	169	2
14	1	418	Baseline	NA	NA	1	452	A1	Zahlen	170	2
14	1	430	Baseline	NA	NA	1	568	A2	Buchstaben	171	2
14	1	440	Baseline	NA	NA	1	530	A2	Buchstaben	172	1
14	1	394	Baseline	NA	NA	1	566	A2	Buchstaben	173	1
14	1	452	Baseline	NA	NA	1	466	A2	Buchstaben	174	1
14	1	745	Test	2	0	1	3076	A2	Buchstaben	1	2
14	1	421	Test	2	3	1	566	A1	Zahlen	2	2
14	1	395	Test	1	4	1	553	A1	Zahlen	3	1
14	2	529	Test	2	2	1	437	A1	Zahlen	4	1
14	1	388	Test	1	4	1	632	A2	Buchstaben	5	2
14	1	426	Test	1	1	1	418	A2	Buchstaben	6	1
14	1	417	Test	1	1	1	479	A2	Buchstaben	7	1
14	2	526	Test	2	2	1	343	A1	Zahlen	8	2
14	1	313	Test	1	4	1	471	A1	Zahlen	9	1
14	1	357	Test	2	2	1	479	A2	Buchstaben	10	2
