Subject	TrialType	Choice.RT	Mode	RewN	RSeq	Target.ACC	Target.RT	Task	TaskChoice	TrialNr	Transition
1			Practice			1	492	A1			2
1			Practice			1	508	A1			1
1			Practice			1	442	A1			1
1			Practice			1	496	A1			1
1			Practice			0	364	A1			1
1			Practice			0	628	A1			1
1			Practice			1	439	A1			1
1			Practice			1	747	A1			1
1			Practice			1	764	A1			1
1			Practice			1	579	A1			1
1			Practice			1	431	A1			1
1			Practice			1	562	A1			1
1			Practice			1	569	A1			1
1			Practice			0	952	A1			1
1			Practice			1	476	A1			1
1			Practice			1	447	A1			1
1			Practice			1	483	A2			2
1			Practice			1	570	A2			1
1			Practice			1	591	A2			1
1			Practice			1	495	A2			1
1			Practice			1	466	A2			1
1			Practice			1	558	A2			1
1			Practice			1	375	A2			1
1			Practice			1	519	A2			1
1			Practice			1	541	A2			1
1			Practice			1	519	A2			1
1			Practice			1	619	A2			1
1			Practice			1	479	A2			1
1			Practice			1	487	A2			1
1			Practice			1	446	A2			1
1			Practice			1	476	A2			1
1			Practice			1	506	A2			1
1		8895	Practice			1	2804	A1			2
1		1290	Practice			0	870	A2			2
1		1366	Practice			1	1888	A1			2
1		1056	Practice			1	664	A2			2
1		1210	Practice			1	967	A1			2
1		870	Practice			1	697	A1			1
1		894	Practice			1	739	A2			2
1		585	Practice			1	622	A1			2
1		1392	Practice			1	570	A2			2
1		623	Practice			1	585	A1			2
1		363	Practice			1	691	A2			2
1		714	Practice			1	491	A2			1
1		461	Practice			1	641	A1			2
1		922	Practice			1	569	A2			2
1		706	Practice			1	551	A2			1
1		995	Practice			1	717	A1			2
1		987	Practice			1	571	A2			2
1		834	Practice			1	1058	A1			2
1		494	Practice			1	609	A1			1
1		684	Practice			1	660	A1			1
1		996	Practice			1	700	A2			2
1		741	Practice			1	562	A2			1
1		974	Practice			1	669	A2			1
1		678	Practice			1	587	A2			1
1		314	Practice			1	770	A1			2
1		662	Practice			1	605	A2			2
1		1722	Practice			1	527	A2			1
1		961	Practice			1	666	A1			2
1		788	Practice			1	579	A1			1
1		776	Practice			1	628	A2			2
1		1047	Practice			1	1027	A1			2
1		759	Practice			1	703	A1			1
1	1	645	Baseline			1	713	A1	Zahlen	1	1
1	1	1061	Baseline			1	684	A1	Zahlen	2	1
1	1	947	Baseline			1	745	A1	Zahlen	3	1
1	1	2719	Baseline			1	698	A2	Buchstaben	4	2
1	1	790	Baseline			1	563	A2	Buchstaben	5	1
1	2	712	Baseline			1	576	A2	Buchstaben	6	1
1	1	646	Baseline			1	633	A1	Zahlen	7	2
1	1	856	Baseline			1	497	A2	Buchstaben	8	2
1	1	868	Baseline			1	451	A2	Buchstaben	9	1
1	1	775	Baseline			1	536	A2	Buchstaben	10	1
1	1	816	Baseline			0	501	A1	Zahlen	11	2
1	2	956	Baseline			1	638	A2	Buchstaben	12	2
1	1	730	Baseline			1	527	A2	Buchstaben	13	1
1	1	638	Baseline			1	606	A2	Buchstaben	14	1
1	1	728	Baseline			1	421	A2	Buchstaben	15	1
1	1	1022	Baseline			1	582	A1	Zahlen	16	2
1	2	725	Baseline			1	602	A2	Buchstaben	17	2
1	1	1334	Baseline			1	624	A2	Buchstaben	18	1
1	1	615	Baseline			1	556	A1	Zahlen	19	2
1	1	1013	Baseline			1	618	A2	Buchstaben	20	2
1	1	474	Baseline			1	693	A1	Zahlen	21	2
1	1	787	Baseline			1	618	A1	Zahlen	22	1
1	2	769	Baseline			1	573	A2	Buchstaben	23	2
1	1	485	Baseline			1	600	A2	Buchstaben	24	1
1	1	652	Baseline			1	543	A2	Buchstaben	25	1
1	1	651	Baseline			1	542	A2	Buchstaben	26	1
1	1	937	Baseline			1	607	A2	Buchstaben	27	1
1	1	999	Baseline			1	568	A2	Buchstaben	28	1
1	1	601	Baseline			1	587	A1	Zahlen	29	2
1	2	528	Baseline			1	572	A2	Buchstaben	30	2
1	1	775	Baseline			1	644	A1	Zahlen	31	2
1	1	929	Baseline			1	707	A1	Zahlen	32	1
1	1	839	Baseline			1	583	A2	Buchstaben	33	2
1	1	1680	Baseline			1	695	A2	Buchstaben	34	1
1	2	366	Baseline			1	597	A2	Buchstaben	35	1
1	1	719	Baseline			1	647	A2	Buchstaben	36	1
1	1	632	Baseline			1	478	A1	Zahlen	37	2
1	1	982	Baseline			1	710	A2	Buchstaben	38	2
1	1	878	Baseline			1	597	A1	Zahlen	39	2
1	1	504	Baseline			1	508	A2	Buchstaben	40	2
1	2	1062	Baseline			1	594	A2	Buchstaben	41	1
1	1	1160	Baseline			1	587	A2	Buchstaben	42	1
1	1	896	Baseline			1	615	A1	Zahlen	43	2
1	1	504	Baseline			1	1464	A1	Zahlen	44	1
1	1	1298	Baseline			1	691	A2	Buchstaben	45	2
1	2	663	Baseline			1	627	A2	Buchstaben	46	1
1	1	1119	Baseline			1	650	A1	Zahlen	47	2
1	1	799	Baseline			1	648	A1	Zahlen	48	1
1	1	1337	Baseline			1	617	A2	Buchstaben	49	2
1	2	615	Baseline			1	611	A2	Buchstaben	50	1
1	1	443	Baseline			1	587	A2	Buchstaben	51	1
1	1	451	Baseline			1	613	A1	Zahlen	52	2
1	1	553	Baseline			1	601	A1	Zahlen	53	1
1	1	999	Baseline			1	576	A1	Zahlen	54	1
1	2	809	Baseline			1	556	A2	Buchstaben	55	2
1	1	1491	Baseline			1	632	A2	Buchstaben	56	1
1	1	743	Baseline			1	609	A1	Zahlen	57	2
1	1	478	Baseline			1	769	A1	Zahlen	58	1
1	1	1250	Baseline			1	563	A2	Buchstaben	59	2
1	1	771	Baseline			1	569	A2	Buchstaben	60	1
1	2	777	Baseline			1	617	A2	Buchstaben	61	1
1	1	1941	Baseline			1	678	A2	Buchstaben	62	1
1	1	888	Baseline			1	662	A1	Zahlen	63	2
1	1	807	Baseline			1	650	A1	Zahlen	64	1
1	1	926	Baseline			1	666	A1	Zahlen	65	1
1	2	670	Baseline			1	533	A2	Buchstaben	66	2
1	1	974	Baseline			1	537	A2	Buchstaben	67	1
1	1	649	Baseline			1	635	A1	Zahlen	68	2
1	1	1248	Baseline			1	524	A2	Buchstaben	69	2
1	2	866	Baseline			1	625	A1	Zahlen	70	2
1	1	619	Baseline			1	586	A1	Zahlen	71	1
1	1	507	Baseline			1	603	A1	Zahlen	72	1
1	1	498	Baseline			1	659	A1	Zahlen	73	1
1	1	1021	Baseline			1	852	A1	Zahlen	74	1
1	1	766	Baseline			1	553	A1	Zahlen	75	1
1	2	855	Baseline			1	564	A2	Buchstaben	76	2
1	1	655	Baseline			1	530	A1	Zahlen	77	2
1	1	656	Baseline			1	404	A2	Buchstaben	78	2
1	1	374	Baseline			1	554	A1	Zahlen	79	2
1	1	1225	Baseline			1	497	A2	Buchstaben	80	2
1	2	1046	Baseline			1	595	A2	Buchstaben	81	1
1	1	668	Baseline			1	667	A1	Zahlen	82	2
1	1	1184	Baseline			1	720	A1	Zahlen	83	1
1	1	435	Baseline			1	683	A1	Zahlen	84	1
1	1	599	Baseline			1	649	A1	Zahlen	85	1
1	1	603	Baseline			1	531	A2	Buchstaben	86	2
1	2	592	Baseline			1	678	A2	Buchstaben	87	1
1	1	620	Baseline			1	801	A1	Zahlen	88	2
1	1	560	Baseline			1	523	A1	Zahlen	89	1
1	1	440	Baseline			1	771	A1	Zahlen	90	1
1	1	497	Baseline			1	501	A2	Buchstaben	91	2
1	1	685	Baseline			1	640	A1	Zahlen	92	2
1	2	1331	Baseline			1	600	A2	Buchstaben	93	2
1	1	585	Baseline			1	601	A2	Buchstaben	94	1
1	1	546	Baseline			1	543	A2	Buchstaben	95	1
1	1	386	Baseline			1	608	A1	Zahlen	96	2
1	1	946	Baseline			1	817	A1	Zahlen	97	1
1	1	892	Baseline			1	657	A2	Buchstaben	98	2
1	2	550	Baseline			1	533	A2	Buchstaben	99	1
1	1	1183	Baseline			1	663	A2	Buchstaben	100	1
1	1	525	Baseline			1	751	A2	Buchstaben	101	1
1	1	431	Baseline			1	508	A1	Zahlen	102	2
1	1	1418	Baseline			1	633	A2	Buchstaben	103	2
1	1	802	Baseline			1	547	A2	Buchstaben	104	1
1	2	532	Baseline			1	566	A2	Buchstaben	105	1
1	1	320	Baseline			1	567	A1	Zahlen	106	2
1	1	484	Baseline			1	535	A1	Zahlen	107	1
1	1	1208	Baseline			1	692	A2	Buchstaben	108	2
1	1	583	Baseline			1	485	A2	Buchstaben	109	1
1	2	1141	Baseline			1	580	A2	Buchstaben	110	1
1	1	619	Baseline			1	766	A2	Buchstaben	111	1
1	1	898	Baseline			1	578	A2	Buchstaben	112	1
1	1	900	Baseline			1	595	A2	Buchstaben	113	1
1	2	939	Baseline			1	690	A2	Buchstaben	114	1
1	1	475	Baseline			1	579	A2	Buchstaben	115	1
1	1	619	Baseline			1	682	A1	Zahlen	116	2
1	1	698	Baseline			1	673	A1	Zahlen	117	1
1	1	803	Baseline			0	658	A1	Zahlen	118	1
1	1	679	Baseline			1	649	A1	Zahlen	119	1
1	2	1009	Baseline			1	598	A2	Buchstaben	120	2
1	1	1659	Baseline			1	691	A2	Buchstaben	121	1
1	1	487	Baseline			1	522	A2	Buchstaben	122	1
1	1	584	Baseline			1	606	A1	Zahlen	123	2
1	1	332	Baseline			1	694	A1	Zahlen	124	1
1	1	1007	Baseline			1	643	A2	Buchstaben	125	2
1	2	477	Baseline			1	597	A2	Buchstaben	126	1
1	1	688	Baseline			1	571	A1	Zahlen	127	2
1	1	1052	Baseline			1	656	A2	Buchstaben	128	2
1	1	618	Baseline			1	696	A1	Zahlen	129	2
1	2	1033	Baseline			1	674	A2	Buchstaben	130	2
1	1	617	Baseline			1	771	A1	Zahlen	131	2
1	1	715	Baseline			1	635	A1	Zahlen	132	1
1	1	631	Baseline			1	584	A1	Zahlen	133	1
1	1	850	Baseline			1	534	A2	Buchstaben	134	2
1	1	588	Baseline			1	594	A2	Buchstaben	135	1
1	1	744	Baseline			1	527	A2	Buchstaben	136	1
1	2	748	Baseline			1	587	A2	Buchstaben	137	1
1	1	531	Baseline			1	567	A2	Buchstaben	138	1
1	1	476	Baseline			1	1021	A1	Zahlen	139	2
1	1	632	Baseline			1	521	A2	Buchstaben	140	2
1	1	433	Baseline			1	562	A2	Buchstaben	141	1
1	1	295	Baseline			1	601	A2	Buchstaben	142	1
1	2	445	Baseline			1	607	A2	Buchstaben	143	1
1	1	927	Baseline			1	611	A1	Zahlen	144	2
1	1	818	Baseline			1	680	A1	Zahlen	145	1
1	1	796	Baseline			1	493	A1	Zahlen	146	1
1	1	1488	Baseline			1	597	A2	Buchstaben	147	2
1	1	877	Baseline			1	550	A1	Zahlen	148	2
1	2	609	Baseline			1	508	A2	Buchstaben	149	2
1	1	487	Baseline			1	826	A1	Zahlen	150	2
1	1	987	Baseline			1	641	A2	Buchstaben	151	2
1	1	597	Baseline			1	678	A2	Buchstaben	152	1
1	1	1062	Baseline			1	622	A2	Buchstaben	153	1
1	1	593	Baseline			1	722	A1	Zahlen	154	2
1	2	525	Baseline			1	584	A2	Buchstaben	155	2
1	1	894	Baseline			1	578	A2	Buchstaben	156	1
1	1	352	Baseline			1	617	A1	Zahlen	157	2
1	1	452	Baseline			1	679	A2	Buchstaben	158	2
1	1	469	Baseline			1	579	A1	Zahlen	159	2
1	1	774	Baseline			1	546	A2	Buchstaben	160	2
1	2	962	Baseline			1	708	A2	Buchstaben	161	1
1	1	1300	Baseline			1	716	A2	Buchstaben	162	1
1	1	602	Baseline			1	602	A1	Zahlen	163	2
1	1	517	Baseline			1	581	A1	Zahlen	164	1
1	1	411	Baseline			1	718	A1	Zahlen	165	1
1	1	647	Baseline			1	538	A2	Buchstaben	166	2
1	1	648	Baseline			1	635	A1	Zahlen	167	2
1	2	783	Baseline			1	669	A2	Buchstaben	168	2
1	1	1017	Baseline			1	656	A2	Buchstaben	169	1
1	1	527	Baseline			1	641	A1	Zahlen	170	2
1	1	615	Baseline			1	634	A2	Buchstaben	171	2
1	1	593	Baseline			1	761	A2	Buchstaben	172	1
1	1	563	Baseline			1	627	A2	Buchstaben	173	1
1	1	1334	Baseline			1	644	A2	Buchstaben	174	1
1											2
1	1	1006	Test	1	0	1	872	A2	Buchstaben	1	2
1	1	410	Test	1	1	1	557	A1	Zahlen	2	2
1	1	854	Test	2	2	1	678	A1	Zahlen	3	1
1	1	1027	Test	1	4	1	483	A2	Buchstaben	4	2
1	1	440	Test	1	1	1	504	A1	Zahlen	5	2
1	2	1220	Test	2	2	1	460	A2	Buchstaben	6	2
1	1	721	Test	2	3	1	505	A1	Zahlen	7	2
1	1	810	Test	1	4	0	739	A1	Zahlen	8	1
1	1	540	Test	2	2	1	425	A2	Buchstaben	9	2
1	1	525	Test	1	4	1	441	A2	Buchstaben	10	1
1	1	520	Test	1	1	1	507	A2	Buchstaben	11	1
1	2	426	Test	2	2	1	460	A2	Buchstaben	12	1
1	1	1252	Test	2	3	1	458	A2	Buchstaben	13	1
1	1	385	Test	1	4	1	598	A2	Buchstaben	14	1
1	1	539	Test	2	2	1	508	A2	Buchstaben	15	1
1	1	449	Test	2	3	1	492	A1	Zahlen	16	2
1	1	423	Test	1	4	1	507	A2	Buchstaben	17	2
1	1	457	Test	1	1	1	503	A1	Zahlen	18	2
1	2	1087	Test	2	2	1	468	A2	Buchstaben	19	2
1	1	410	Test	2	3	1	540	A1	Zahlen	20	2
1	1	769	Test	2	3	1	489	A2	Buchstaben	21	2
1	1	319	Test	1	4	1	555	A1	Zahlen	22	2
1	1	618	Test	2	2	1	449	A1	Zahlen	23	1
1	2	694	Test	2	3	1	553	A2	Buchstaben	24	2
1	1	567	Test	1	4	1	596	A1	Zahlen	25	2
1	1	736	Test	1	1	1	507	A1	Zahlen	26	1
1	1	590	Test	1	1	1	512	A2	Buchstaben	27	2
1	1	447	Test	1	1	1	425	A1	Zahlen	28	2
1	2	1172	Test	2	2	1	409	A2	Buchstaben	29	2
1	1	545	Test	2	3	1	391	A1	Zahlen	30	2
1	1	342	Test	2	3	1	634	A1	Zahlen	31	1
1	1	858	Test	2	3	1	400	A2	Buchstaben	32	2
1	1	1169	Test	1	4	1	335	A2	Buchstaben	33	1
1	2	501	Test	2	2	1	459	A2	Buchstaben	34	1
1	1	461	Test	2	3	1	346	A1	Zahlen	35	2
1	1	749	Test	2	3	1	363	A1	Zahlen	36	1
1	1	443	Test	2	3	0	451	A1	Zahlen	37	1
1	1	695	Test	2	3	1	516	A2	Buchstaben	38	2
1	1	1110	Test	1	4	1	423	A2	Buchstaben	39	1
1	2	490	Test	2	2	1	405	A2	Buchstaben	40	1
1	1	426	Test	1	4	1	408	A2	Buchstaben	41	1
1	1	482	Test	2	2	1	477	A1	Zahlen	42	2
1	1	517	Test	1	4	1	512	A1	Zahlen	43	1
1	1	577	Test	1	1	1	536	A2	Buchstaben	44	2
1	1	920	Test	1	1	1	481	A2	Buchstaben	45	1
1	1	490	Test	1	1	1	758	A1	Zahlen	46	2
1	2	673	Test	2	2	1	409	A2	Buchstaben	47	2
1	1	573	Test	2	3	1	473	A1	Zahlen	48	2
1	1	583	Test	2	3	1	508	A1	Zahlen	49	1
1	1	889	Test	2	3	1	526	A1	Zahlen	50	1
1	1	440	Test	1	4	1	786	A1	Zahlen	51	1
1	2	698	Test	2	2	1	606	A2	Buchstaben	52	2
1	1	1234	Test	1	4	1	478	A2	Buchstaben	53	1
1	1	445	Test	1	1	1	511	A1	Zahlen	54	2
1	1	863	Test	2	2	1	396	A1	Zahlen	55	1
1	2	969	Test	2	3	1	388	A2	Buchstaben	56	2
1	1	453	Test	2	3	1	487	A2	Buchstaben	57	1
1	1	704	Test	1	4	0	408	A2	Buchstaben	58	1
1	1	523	Test	1	1	1	817	A1	Zahlen	59	2
1	1	761	Test	1	1	1	613	A1	Zahlen	60	1
1	2	1097	Test	2	2	1	354	A2	Buchstaben	61	2
1	1	2346	Test	2	3	0	438	A2	Buchstaben	62	1
1	1	542	Test	1	4	1	518	A1	Zahlen	63	2
1	1	831	Test	1	1	1	576	A1	Zahlen	64	1
1	2	959	Test	2	2	1	493	A2	Buchstaben	65	2
1	1	670	Test	2	3	1	416	A1	Zahlen	66	2
1	1	816	Test	2	3	1	515	A1	Zahlen	67	1
1	1	921	Test	2	3	1	426	A2	Buchstaben	68	2
1	1	696	Test	2	3	1	475	A1	Zahlen	69	2
1	1	527	Test	2	3	1	489	A2	Buchstaben	70	2
1	2	562	Test	2	3	1	403	A2	Buchstaben	71	1
1	1	467	Test	2	3	1	897	A1	Zahlen	72	2
1	1	546	Test	1	4	1	546	A2	Buchstaben	73	2
1	1	925	Test	1	1	1	524	A1	Zahlen	74	2
1	1	1169	Test	2	2	0	373	A2	Buchstaben	75	2
1	2	387	Test	2	3	1	504	A2	Buchstaben	76	1
1	1	465	Test	1	4	0	742	A1	Zahlen	77	2
1	1	453	Test	1	1	1	535	A1	Zahlen	78	1
1	1	1115	Test	1	1	1	501	A2	Buchstaben	79	2
1	1	1175	Test	2	2	1	503	A1	Zahlen	80	2
1	2	714	Test	2	3	1	414	A2	Buchstaben	81	2
1	1	692	Test	1	4	1	498	A1	Zahlen	82	2
1	1	510	Test	1	1	1	894	A1	Zahlen	83	1
1	1	464	Test	1	1	1	551	A1	Zahlen	84	1
1	2	1041	Test	2	2	1	379	A2	Buchstaben	85	2
1	1	1273	Test	2	3	1	458	A2	Buchstaben	86	1
1	1	1628	Test	2	3	1	384	A2	Buchstaben	87	1
1	1	592	Test	2	3	1	626	A1	Zahlen	88	2
1	1	479	Test	2	3	1	471	A2	Buchstaben	89	2
1	2	848	Test	2	3	1	453	A2	Buchstaben	90	1
1	1	487	Test	1	4	1	553	A2	Buchstaben	91	1
1	1	483	Test	1	1	1	572	A1	Zahlen	92	2
1	1	721	Test	1	1	1	698	A2	Buchstaben	93	2
1	1	579	Test	2	2	1	490	A2	Buchstaben	94	1
1	1	570	Test	1	4	1	437	A2	Buchstaben	95	1
1	1	387	Test	1	1	1	632	A2	Buchstaben	96	1
1	2	937	Test	2	2	1	400	A2	Buchstaben	97	1
1	1	1075	Test	2	3	1	455	A1	Zahlen	98	2
1	1	1093	Test	2	3	1	516	A1	Zahlen	99	1
1	1	2736	Test	2	3	1	606	A2	Buchstaben	100	2
1	1	499	Test	2	3	0	332	A2	Buchstaben	101	1
1	2	686	Test	2	3	1	505	A2	Buchstaben	102	1
1	1	1109	Test	2	3	1	336	A2	Buchstaben	103	1
1	1	652	Test	1	4	1	760	A1	Zahlen	104	2
1	1	545	Test	1	1	1	510	A2	Buchstaben	105	2
1	2	618	Test	2	2	1	395	A2	Buchstaben	106	1
1	1	667	Test	2	3	1	596	A1	Zahlen	107	2
1	1	418	Test	2	3	1	575	A1	Zahlen	108	1
1	1	515	Test	1	4	1	514	A1	Zahlen	109	1
1	1	614	Test	2	2	1	474	A1	Zahlen	110	1
1	2	953	Test	2	3	1	378	A2	Buchstaben	111	2
1	1	522	Test	1	4	1	499	A2	Buchstaben	112	1
1	1	448	Test	1	1	1	564	A2	Buchstaben	113	1
1	1	1399	Test	1	1	1	674	A2	Buchstaben	114	1
1	1	834	Test	1	1	1	659	A1	Zahlen	115	2
1	2	623	Test	2	2	1	395	A2	Buchstaben	116	2
1	1	614	Test	1	4	1	468	A2	Buchstaben	117	1
1	1	388	Test	1	1	1	609	A1	Zahlen	118	2
1	1	740	Test	2	2	1	459	A1	Zahlen	119	1
1	1	773	Test	2	3	1	471	A2	Buchstaben	120	2
1	1	396	Test	1	4	1	632	A1	Zahlen	121	2
1	2	1086	Test	2	2	1	531	A2	Buchstaben	122	2
1	1	907	Test	2	3	1	426	A2	Buchstaben	123	1
1	1	771	Test	2	3	1	492	A2	Buchstaben	124	1
1	1	768	Test	1	4	1	476	A1	Zahlen	125	2
1	1	774	Test	1	1	1	570	A2	Buchstaben	126	2
1	1	900	Test	1	1	1	669	A2	Buchstaben	127	1
1	2	1646	Test	2	2	1	475	A2	Buchstaben	128	1
1	1	1561	Test	2	3	1	342	A2	Buchstaben	129	1
1	1	1450	Test	2	3	1	425	A1	Zahlen	130	2
1	1	1088	Test	2	3	1	411	A1	Zahlen	131	1
1	2	1778	Test	2	3	1	402	A2	Buchstaben	132	2
1	1	499	Test	1	4	1	497	A2	Buchstaben	133	1
1	1	855	Test	1	1	1	605	A1	Zahlen	134	2
1	1	504	Test	1	1	1	758	A1	Zahlen	135	1
1	1	458	Test	1	1	1	590	A2	Buchstaben	136	2
1	1	965	Test	2	2	1	339	A2	Buchstaben	137	1
1	2	1162	Test	2	3	1	527	A2	Buchstaben	138	1
1	1	625	Test	1	4	1	544	A1	Zahlen	139	2
1	1	411	Test	1	1	1	584	A1	Zahlen	140	1
1	1	540	Test	1	1	1	579	A1	Zahlen	141	1
1	1	1107	Test	2	2	1	434	A1	Zahlen	142	1
1	2	1217	Test	2	3	1	424	A2	Buchstaben	143	2
1	1	989	Test	1	4	1	575	A2	Buchstaben	144	1
1	1	837	Test	2	2	1	501	A1	Zahlen	145	2
1	1	726	Test	1	4	1	817	A1	Zahlen	146	1
1	1	1834	Test	1	1	1	653	A2	Buchstaben	147	2
1	1	1023	Test	2	2	1	425	A2	Buchstaben	148	1
1	2	855	Test	2	3	1	454	A2	Buchstaben	149	1
1	1	896	Test	2	3	1	783	A1	Zahlen	150	2
1	1	648	Test	2	3	1	364	A2	Buchstaben	151	2
1	1	536	Test	1	4	1	605	A2	Buchstaben	152	1
1	1	637	Test	2	2	1	494	A2	Buchstaben	153	1
1	2	1430	Test	2	3	1	440	A2	Buchstaben	154	1
1	1	528	Test	1	4	1	537	A2	Buchstaben	155	1
1	1	492	Test	1	1	1	585	A1	Zahlen	156	2
1	1	424	Test	1	1	1	485	A2	Buchstaben	157	2
1	1	517	Test	1	1	1	694	A1	Zahlen	158	2
1	1	577	Test	1	1	1	551	A1	Zahlen	159	1
1	2	975	Test	2	2	1	484	A2	Buchstaben	160	2
1	1	609	Test	1	4	1	541	A1	Zahlen	161	2
1	1	623	Test	1	1	1	550	A2	Buchstaben	162	2
1	1	465	Test	1	1	1	584	A2	Buchstaben	163	1
1	1	413	Test	1	1	1	573	A1	Zahlen	164	2
1	1	691	Test	1	1	1	534	A2	Buchstaben	165	2
1	1	1019	Test	2	2	1	355	A2	Buchstaben	166	1
1	2	845	Test	2	3	1	369	A2	Buchstaben	167	1
1	1	580	Test	1	4	1	565	A2	Buchstaben	168	1
1	1	416	Test	1	1	1	529	A2	Buchstaben	169	1
1	1	446	Test	1	1	1	626	A2	Buchstaben	170	1
1	1	722	Test	1	1	1	634	A1	Zahlen	171	2
1	1	857	Test	1	1	1	519	A2	Buchstaben	172	2
1	2	704	Test	2	2	1	425	A2	Buchstaben	173	1
1	1	1303	Test	1	4	1	718	A2	Buchstaben	174	1
1	1	734	Test	2	2	1	421	A2	Buchstaben	175	1
1	1	1125	Test	2	3	1	502	A1	Zahlen	176	2
1	1	826	Test	1	4	1	592	A1	Zahlen	177	1
1	1	628	Test	2	2	1	449	A1	Zahlen	178	1
1	2	1001	Test	2	3	1	395	A2	Buchstaben	179	2
1	1	576	Test	1	4	1	778	A1	Zahlen	180	2
1	1	551	Test	1	1	1	545	A1	Zahlen	181	1
1	1	519	Test	2	2	1	536	A1	Zahlen	182	1
1	1	774	Test	2	3	1	403	A2	Buchstaben	183	2
1	1	1035	Test	2	3	1	472	A2	Buchstaben	184	1
1	2	567	Test	2	3	1	531	A2	Buchstaben	185	1
1	1	1768	Test	2	3	1	413	A2	Buchstaben	186	1
1	1	719	Test	2	3	1	503	A1	Zahlen	187	2
1	1	352	Test	1	4	1	532	A2	Buchstaben	188	2
1	1	555	Test	1	1	1	539	A2	Buchstaben	189	1
1	1	519	Test	2	2	1	511	A1	Zahlen	190	2
1	2	485	Test	2	3	1	479	A2	Buchstaben	191	2
1	1	493	Test	2	3	1	392	A2	Buchstaben	192	1
1	1	515	Test	1	4	1	472	A1	Zahlen	193	2
1	1	686	Test	2	2	1	461	A2	Buchstaben	194	2
1	2	402	Test	2	3	1	425	A2	Buchstaben	195	1
1	1	546	Test	1	4	1	530	A1	Zahlen	196	2
1	1	670	Test	1	1	1	515	A1	Zahlen	197	1
1	1	700	Test	2	2	1	508	A2	Buchstaben	198	2
1	1	659	Test	1	4	1	492	A1	Zahlen	199	2
1	1	369	Test	1	1	1	707	A1	Zahlen	200	1
1	1	575	Test	1	1	1	499	A1	Zahlen	201	1
1	2	754	Test	2	2	1	413	A2	Buchstaben	202	2
1	1	633	Test	2	3	1	442	A2	Buchstaben	203	1
1	1	912	Test	2	3	1	394	A1	Zahlen	204	2
1	1	554	Test	2	3	1	484	A1	Zahlen	205	1
1	1	731	Test	1	4	1	630	A2	Buchstaben	206	2
1	2	530	Test	2	2	1	511	A2	Buchstaben	207	1
1	1	686	Test	2	3	1	329	A1	Zahlen	208	2
1	1	537	Test	2	3	1	408	A1	Zahlen	209	1
1	1	1071	Test	2	3	1	456	A1	Zahlen	210	1
1	1	809	Test	2	3	1	477	A1	Zahlen	211	1
1	2	859	Test	2	3	1	417	A2	Buchstaben	212	2
1	1	322	Test	1	4	1	553	A2	Buchstaben	213	1
1	1	666	Test	1	1	1	464	A1	Zahlen	214	2
1	1	419	Test	1	1	1	384	A1	Zahlen	215	1
1	1	448	Test	1	1	1	449	A1	Zahlen	216	1
1	1	750	Test	2	2	0	334	A2	Buchstaben	217	2
1	2	551	Test	2	3	1	519	A2	Buchstaben	218	1
1	1	530	Test	1	4	1	532	A2	Buchstaben	219	1
1	1	843	Test	2	2	1	475	A1	Zahlen	220	2
1	1	1295	Test	1	4	1	547	A2	Buchstaben	221	2
1	1	470	Test	1	1	1	516	A2	Buchstaben	222	1
1	2	473	Test	2	2	1	482	A2	Buchstaben	223	1
1	1	663	Test	2	3	1	382	A1	Zahlen	224	2
1	1	554	Test	2	3	1	403	A1	Zahlen	225	1
1	1	571	Test	2	3	1	471	A1	Zahlen	226	1
1	2	662	Test	2	3	1	510	A1	Zahlen	227	1
1	1	431	Test	1	4	1	488	A1	Zahlen	228	1
1	1	405	Test	2	2	1	527	A1	Zahlen	229	1
1	1	1035	Test	2	3	1	467	A2	Buchstaben	230	2
1	1	867	Test	2	3	1	423	A2	Buchstaben	231	1
1	2	708	Test	2	3	1	491	A2	Buchstaben	232	1
1	1	776	Test	1	4	1	563	A1	Zahlen	233	2
1	1	516	Test	1	1	1	461	A2	Buchstaben	234	2
1	1	512	Test	1	1	1	498	A1	Zahlen	235	2
1	1	513	Test	1	1	1	452	A2	Buchstaben	236	2
1	2	561	Test	2	2	1	465	A2	Buchstaben	237	1
1	1	881	Test	2	3	1	387	A2	Buchstaben	238	1
1	1	614	Test	1	4	1	523	A1	Zahlen	239	2
1	1	684	Test	2	2	1	383	A1	Zahlen	240	1
1	1	783	Test	2	3	1	389	A1	Zahlen	241	1
1	1	419	Test	1	4	1	506	A2	Buchstaben	242	2
1	2	625	Test	2	2	1	428	A1	Zahlen	243	2
1	1	675	Test	2	3	1	477	A1	Zahlen	244	1
1	1	622	Test	2	3	1	637	A1	Zahlen	245	1
1	1	496	Test	2	3	1	434	A2	Buchstaben	246	2
1	1	560	Test	2	3	1	411	A1	Zahlen	247	2
1	1	432	Test	1	4	1	483	A1	Zahlen	248	1
1	1	411	Test	2	2	1	463	A2	Buchstaben	249	2
1	2	755	Test	2	3	1	550	A1	Zahlen	250	2
1	1	345	Test	2	3	1	462	A2	Buchstaben	251	2
1	1	479	Test	1	4	1	609	A2	Buchstaben	252	1
1	1	437	Test	2	2	1	437	A2	Buchstaben	253	1
1	1	512	Test	2	3	1	384	A2	Buchstaben	254	1
1	1	374	Test	1	4	1	532	A2	Buchstaben	255	1
1	2	1391	Test	2	2	1	450	A2	Buchstaben	256	1
1	1	471	Test	2	3	1	479	A2	Buchstaben	257	1
1	1	417	Test	1	4	1	495	A2	Buchstaben	258	1
1	1	786	Test	2	2	1	489	A2	Buchstaben	259	1
1	1	593	Test	1	4	1	545	A2	Buchstaben	260	1
1	1	1000	Test	2	2	1	468	A2	Buchstaben	261	1
1	1	431	Test	1	4	1	508	A2	Buchstaben	262	1
1	2	471	Test	2	2	1	560	A2	Buchstaben	263	1
1	1	813	Test	2	3	1	448	A2	Buchstaben	264	1
1	1	549	Test	1	4	1	547	A2	Buchstaben	265	1
1	1	571	Test	2	2	1	430	A2	Buchstaben	266	1
1	1	475	Test	1	4	1	1090	A1	Zahlen	267	2
1	2	459	Test	2	2	1	521	A2	Buchstaben	268	2
1	1	374	Test	2	3	1	474	A2	Buchstaben	269	1
1	1	518	Test	1	4	1	743	A1	Zahlen	270	2
1	1	809	Test	2	2	1	333	A1	Zahlen	271	1
1	1	695	Test	2	3	1	499	A2	Buchstaben	272	2
1	1	854	Test	2	3	1	465	A1	Zahlen	273	2
1	1	976	Test	1	4	1	528	A1	Zahlen	274	1
1	2	754	Test	2	2	1	458	A2	Buchstaben	275	2
1	1	593	Test	2	3	1	499	A2	Buchstaben	276	1
1	1	474	Test	1	4	1	555	A2	Buchstaben	277	1
1	1	627	Test	2	2	1	463	A1	Zahlen	278	2
1	1	673	Test	2	3	1	505	A2	Buchstaben	279	2
1	1	736	Test	2	3	1	523	A1	Zahlen	280	2
1	1	942	Test	2	3	1	429	A2	Buchstaben	281	2
1	2	1021	Test	2	3	1	430	A2	Buchstaben	282	1
1	1	807	Test	1	4	1	503	A1	Zahlen	283	2
1	1	561	Test	1	1	1	576	A2	Buchstaben	284	2
1	1	724	Test	1	1	1	473	A2	Buchstaben	285	1
1	1	566	Test	1	1	1	520	A2	Buchstaben	286	1
1	2	913	Test	2	2	1	439	A2	Buchstaben	287	1
1	1	365	Test	1	4	1	483	A2	Buchstaben	288	1
1	1	536	Test	2	2	1	491	A1	Zahlen	289	2
1	1	1033	Test	2	3	1	503	A1	Zahlen	290	1
1	1	670	Test	2	3	1	368	A2	Buchstaben	291	2
1	2	481	Test	2	3	1	490	A2	Buchstaben	292	1
1	1	540	Test	2	3	1	532	A2	Buchstaben	293	1
1	1	622	Test	1	4	1	612	A1	Zahlen	294	2
1	1	783	Test	1	1	1	623	A2	Buchstaben	295	2
1	1	531	Test	2	2	1	488	A2	Buchstaben	296	1
1	1	535	Test	1	4	1	745	A1	Zahlen	297	2
1	2	648	Test	2	2	1	508	A2	Buchstaben	298	2
1	1	498	Test	2	3	1	541	A2	Buchstaben	299	1
1	1	623	Test	2	3	1	428	A1	Zahlen	300	2
1	1	607	Test	2	3	1	355	A2	Buchstaben	301	2
1	1	699	Test	2	3	1	457	A2	Buchstaben	302	1
1	1	567	Test	2	3	1	345	A2	Buchstaben	303	1
1	1	497	Test	2	3	1	503	A1	Zahlen	304	2
1	2	1082	Test	2	3	1	323	A2	Buchstaben	305	2
1	1	356	Test	1	4	1	591	A2	Buchstaben	306	1
1	1	705	Test	1	1	1	455	A1	Zahlen	307	2
1	1	626	Test	1	1	1	481	A2	Buchstaben	308	2
1	1	442	Test	1	1	1	595	A1	Zahlen	309	2
1	2	856	Test	2	2	1	359	A2	Buchstaben	310	2
1	1	670	Test	2	3	1	407	A1	Zahlen	311	2
1	1	679	Test	2	3	1	345	A2	Buchstaben	312	2
1	1	592	Test	2	3	1	513	A2	Buchstaben	313	1
1	1	633	Test	2	3	1	346	A1	Zahlen	314	2
1	1	372	Test	2	3	1	433	A1	Zahlen	315	1
1	2	953	Test	2	3	1	450	A2	Buchstaben	316	2
1	1	600	Test	1	4	1	540	A1	Zahlen	317	2
1	1	556	Test	1	1	1	598	A2	Buchstaben	318	2
1	1	861	Test	2	2	1	555	A1	Zahlen	319	2
1	1	1295	Test	1	4	1	523	A2	Buchstaben	320	2
1	1	596	Test	2	2	1	509	A1	Zahlen	321	2
1	2	1149	Test	2	3	1	408	A2	Buchstaben	322	2
1	1	645	Test	1	4	1	591	A2	Buchstaben	323	1
1	1	636	Test	1	1	1	630	A1	Zahlen	324	2
1	1	703	Test	2	2	1	509	A1	Zahlen	325	1
1	2	1046	Test	2	3	1	386	A2	Buchstaben	326	2
1	1	592	Test	1	4	1	530	A1	Zahlen	327	2
1	1	1227	Test	2	2	1	386	A2	Buchstaben	328	2
1	1	635	Test	1	4	1	555	A2	Buchstaben	329	1
1	2	439	Test	2	2	1	432	A2	Buchstaben	330	1
1	1	470	Test	2	3	1	480	A1	Zahlen	331	2
1	1	525	Test	1	4	1	665	A1	Zahlen	332	1
1	1	835	Test	2	2	1	394	A1	Zahlen	333	1
1	1	447	Test	2	3	1	429	A2	Buchstaben	334	2
1	1	693	Test	2	3	1	456	A2	Buchstaben	335	1
1	2	510	Test	2	3	1	537	A2	Buchstaben	336	1
1	1	425	Test	2	3	1	579	A2	Buchstaben	337	1
1	1	394	Test	1	4	1	523	A1	Zahlen	338	2
1	1	514	Test	1	1	1	578	A2	Buchstaben	339	2
1	1	483	Test	2	2	1	336	A2	Buchstaben	340	1
1	1	385	Test	1	4	1	432	A2	Buchstaben	341	1
1	2	473	Test	2	2	0	394	A2	Buchstaben	342	1
1	1	755	Test	2	3	1	430	A2	Buchstaben	343	1
1	1	583	Test	2	3	1	583	A1	Zahlen	344	2
1	1	499	Test	2	3	1	505	A1	Zahlen	345	1
1	2	637	Test	2	3	1	383	A2	Buchstaben	346	2
1	1	462	Test	2	3	1	509	A2	Buchstaben	347	1
1	1	1044	Test	2	3	1	386	A2	Buchstaben	348	1
1	1	561	Test	2	3	1	533	A2	Buchstaben	349	1
1	1	642	Test	2	3	1	474	A1	Zahlen	350	2
1	2	515	Test	2	3	1	480	A2	Buchstaben	351	2
1	1	464	Test	1	4	1	453	A1	Zahlen	352	2
10			Practice			1	477	A2			2
10			Practice			1	569	A2			1
10			Practice			1	524	A2			1
10			Practice			1	648	A2			1
10			Practice			1	625	A2			1
10			Practice			1	509	A2			1
10			Practice			1	582	A2			1
10			Practice			1	413	A2			1
10			Practice			1	496	A2			1
10			Practice			1	475	A2			1
10			Practice			1	476	A2			1
10			Practice			1	525	A2			1
10			Practice			1	420	A2			1
10			Practice			1	511	A2			1
10			Practice			1	446	A2			1
10			Practice			1	623	A2			1
10			Practice			1	638	A1			2
10			Practice			1	522	A1			1
10			Practice			1	467	A1			1
10			Practice			1	398	A1			1
10			Practice			1	547	A1			1
10			Practice			1	606	A1			1
10			Practice			1	596	A1			1
10			Practice			1	485	A1			1
10			Practice			1	417	A1			1
10			Practice			1	440	A1			1
10			Practice			1	439	A1			1
10			Practice			0	473	A1			1
10			Practice			1	566	A1			1
10			Practice			1	585	A1			1
10			Practice			1	508	A1			1
10			Practice			1	507	A1			1
10		2460	Practice			1	3071	A2			2
10		1717	Practice			1	872	A1			2
10		1058	Practice			1	1391	A1			1
10		1250	Practice			1	761	A2			2
10		1143	Practice			1	881	A1			2
10		872	Practice			1	658	A2			2
10		1216	Practice			1	864	A1			2
10		753	Practice			1	819	A1			1
10		1217	Practice			1	632	A2			2
10		723	Practice			1	613	A2			1
10		602	Practice			1	531	A2			1
10		603	Practice			1	541	A2			1
10		710	Practice			1	742	A1			2
10		846	Practice			1	626	A1			1
10		726	Practice			1	596	A2			2
10		759	Practice			1	591	A1			2
10		636	Practice			1	572	A2			2
10		505	Practice			1	551	A2			1
10		655	Practice			1	549	A2			1
10		805	Practice			1	708	A1			2
10		644	Practice			1	532	A2			2
10		701	Practice			1	491	A1			2
10		694	Practice			1	571	A1			1
10		708	Practice			0	788	A1			1
10		456	Practice			1	548	A2			2
10		704	Practice			1	560	A1			2
10		618	Practice			1	553	A2			2
10		784	Practice			1	607	A1			2
10		513	Practice			1	608	A2			2
10		767	Practice			1	614	A1			2
10		704	Practice			1	646	A1			1
10		500	Practice			1	640	A2			2
10	1	806	Baseline			1	1258	A1	Zahlen	1	2
10	1	745	Baseline			1	793	A2	Buchstaben	2	2
10	1	598	Baseline			1	576	A1	Zahlen	3	2
10	1	602	Baseline			1	717	A2	Buchstaben	4	2
10	1	420	Baseline			1	667	A2	Buchstaben	5	1
10	1	744	Baseline			1	615	A2	Buchstaben	6	1
10	2	794	Baseline			1	611	A2	Buchstaben	7	1
10	1	425	Baseline			1	714	A1	Zahlen	8	2
10	1	1159	Baseline			1	588	A2	Buchstaben	9	2
10	1	487	Baseline			1	618	A2	Buchstaben	10	1
10	1	650	Baseline			1	605	A1	Zahlen	11	2
10	1	479	Baseline			1	556	A2	Buchstaben	12	2
10	2	457	Baseline			1	526	A2	Buchstaben	13	1
10	1	391	Baseline			1	575	A2	Buchstaben	14	1
10	1	470	Baseline			1	638	A2	Buchstaben	15	1
10	1	670	Baseline			1	559	A1	Zahlen	16	2
10	1	524	Baseline			1	569	A1	Zahlen	17	1
10	1	672	Baseline			1	488	A1	Zahlen	18	1
10	1	432	Baseline			1	638	A1	Zahlen	19	1
10	2	904	Baseline			1	606	A1	Zahlen	20	1
10	1	645	Baseline			1	544	A2	Buchstaben	21	2
10	1	446	Baseline			1	546	A1	Zahlen	22	2
10	1	722	Baseline			1	540	A2	Buchstaben	23	2
10	1	568	Baseline			1	547	A2	Buchstaben	24	1
10	2	540	Baseline			1	625	A2	Buchstaben	25	1
10	1	893	Baseline			1	562	A1	Zahlen	26	2
10	1	770	Baseline			1	485	A2	Buchstaben	27	2
10	1	744	Baseline			1	552	A2	Buchstaben	28	1
10	1	599	Baseline			1	554	A1	Zahlen	29	2
10	1	400	Baseline			1	567	A2	Buchstaben	30	2
10	2	1133	Baseline			1	600	A2	Buchstaben	31	1
10	1	638	Baseline			1	552	A1	Zahlen	32	2
10	1	669	Baseline			1	580	A2	Buchstaben	33	2
10	1	1392	Baseline			1	579	A2	Buchstaben	34	1
10	1	470	Baseline			1	860	A1	Zahlen	35	2
10	2	587	Baseline			1	571	A1	Zahlen	36	1
10	1	519	Baseline			1	512	A1	Zahlen	37	1
10	1	570	Baseline			1	645	A1	Zahlen	38	1
10	1	691	Baseline			1	558	A2	Buchstaben	39	2
10	1	626	Baseline			1	561	A1	Zahlen	40	2
10	2	857	Baseline			1	696	A2	Buchstaben	41	2
10	1	724	Baseline			1	724	A2	Buchstaben	42	1
10	1	688	Baseline			1	644	A2	Buchstaben	43	1
10	1	663	Baseline			1	615	A2	Buchstaben	44	1
10	2	548	Baseline			1	706	A1	Zahlen	45	2
10	1	400	Baseline			1	736	A1	Zahlen	46	1
10	1	495	Baseline			1	541	A1	Zahlen	47	1
10	1	833	Baseline			1	653	A1	Zahlen	48	1
10	1	589	Baseline			1	507	A2	Buchstaben	49	2
10	1	449	Baseline			1	581	A2	Buchstaben	50	1
10	2	490	Baseline			1	549	A1	Zahlen	51	2
10	1	512	Baseline			1	651	A1	Zahlen	52	1
10	1	516	Baseline			1	556	A1	Zahlen	53	1
10	1	425	Baseline			1	646	A2	Buchstaben	54	2
10	1	416	Baseline			1	538	A2	Buchstaben	55	1
10	1	604	Baseline			1	526	A1	Zahlen	56	2
10	1	985	Baseline			1	630	A2	Buchstaben	57	2
10	2	497	Baseline			1	591	A1	Zahlen	58	2
10	1	413	Baseline			1	527	A2	Buchstaben	59	2
10	1	405	Baseline			1	571	A2	Buchstaben	60	1
10	1	711	Baseline			1	625	A1	Zahlen	61	2
10	1	398	Baseline			1	628	A1	Zahlen	62	1
10	1	542	Baseline			1	533	A1	Zahlen	63	1
10	2	906	Baseline			1	577	A2	Buchstaben	64	2
10	1	623	Baseline			1	573	A1	Zahlen	65	2
10	1	449	Baseline			1	547	A2	Buchstaben	66	2
10	1	642	Baseline			1	562	A1	Zahlen	67	2
10	1	443	Baseline			1	555	A2	Buchstaben	68	2
10	1	634	Baseline			1	586	A2	Buchstaben	69	1
10	2	514	Baseline			1	530	A1	Zahlen	70	2
10	1	730	Baseline			1	525	A2	Buchstaben	71	2
10	1	355	Baseline			1	579	A2	Buchstaben	72	1
10	1	785	Baseline			1	551	A2	Buchstaben	73	1
10	1	579	Baseline			1	592	A1	Zahlen	74	2
10	1	554	Baseline			1	578	A1	Zahlen	75	1
10	2	619	Baseline			1	544	A1	Zahlen	76	1
10	1	462	Baseline			1	547	A2	Buchstaben	77	2
10	1	622	Baseline			1	652	A1	Zahlen	78	2
10	1	447	Baseline			1	578	A2	Buchstaben	79	2
10	1	387	Baseline			1	551	A2	Buchstaben	80	1
10	2	587	Baseline			1	520	A1	Zahlen	81	2
10	1	588	Baseline			1	513	A2	Buchstaben	82	2
10	1	618	Baseline			1	543	A2	Buchstaben	83	1
10	1	350	Baseline			1	562	A2	Buchstaben	84	1
10	1	381	Baseline			1	611	A2	Buchstaben	85	1
10	2	946	Baseline			1	497	A1	Zahlen	86	2
10	1	681	Baseline			1	546	A2	Buchstaben	87	2
10	1	478	Baseline			1	950	A1	Zahlen	88	2
10	1	666	Baseline			1	537	A1	Zahlen	89	1
10	1	545	Baseline			1	407	A2	Buchstaben	90	2
10	2	545	Baseline			1	616	A2	Buchstaben	91	1
10	1	687	Baseline			1	587	A1	Zahlen	92	2
10	1	411	Baseline			1	591	A2	Buchstaben	93	2
10	1	516	Baseline			1	581	A1	Zahlen	94	2
10	1	402	Baseline			1	563	A2	Buchstaben	95	2
10	1	494	Baseline			1	609	A1	Zahlen	96	2
10	1	668	Baseline			1	587	A1	Zahlen	97	1
10	2	379	Baseline			1	560	A2	Buchstaben	98	2
10	1	517	Baseline			1	637	A1	Zahlen	99	2
10	1	490	Baseline			1	660	A1	Zahlen	100	1
10	1	1184	Baseline			1	751	A2	Buchstaben	101	2
10	1	489	Baseline			1	611	A1	Zahlen	102	2
10	2	434	Baseline			1	578	A2	Buchstaben	103	2
10	1	571	Baseline			1	525	A1	Zahlen	104	2
10	1	452	Baseline			1	542	A1	Zahlen	105	1
10	1	431	Baseline			1	583	A2	Buchstaben	106	2
10	1	877	Baseline			1	670	A2	Buchstaben	107	1
10	1	631	Baseline			1	616	A2	Buchstaben	108	1
10	2	628	Baseline			1	577	A1	Zahlen	109	2
10	1	1194	Baseline			1	596	A2	Buchstaben	110	2
10	1	346	Baseline			1	527	A2	Buchstaben	111	1
10	1	562	Baseline			1	634	A1	Zahlen	112	2
10	1	399	Baseline			1	614	A2	Buchstaben	113	2
10	2	687	Baseline			1	594	A1	Zahlen	114	2
10	1	1246	Baseline			1	570	A2	Buchstaben	115	2
10	1	510	Baseline			1	1035	A1	Zahlen	116	2
10	1	753	Baseline			1	627	A1	Zahlen	117	1
10	1	731	Baseline			1	591	A1	Zahlen	118	1
10	2	487	Baseline			1	547	A2	Buchstaben	119	2
10	1	634	Baseline			1	556	A2	Buchstaben	120	1
10	1	614	Baseline			1	514	A2	Buchstaben	121	1
10	1	639	Baseline			1	616	A1	Zahlen	122	2
10	2	419	Baseline			1	617	A2	Buchstaben	123	2
10	1	380	Baseline			1	626	A1	Zahlen	124	2
10	1	762	Baseline			1	572	A1	Zahlen	125	1
10	1	401	Baseline			1	626	A2	Buchstaben	126	2
10	1	490	Baseline			1	598	A1	Zahlen	127	2
10	2	566	Baseline			1	594	A1	Zahlen	128	1
10	1	858	Baseline			1	777	A1	Zahlen	129	1
10	1	569	Baseline			1	525	A2	Buchstaben	130	2
10	1	490	Baseline			1	750	A1	Zahlen	131	2
10	1	497	Baseline			1	595	A2	Buchstaben	132	2
10	1	495	Baseline			1	609	A1	Zahlen	133	2
10	2	1232	Baseline			1	1041	A2	Buchstaben	134	2
10	1	812	Baseline			1	735	A1	Zahlen	135	2
10	1	534	Baseline			1	561	A2	Buchstaben	136	2
10	1	696	Baseline			1	547	A1	Zahlen	137	2
10	1	823	Baseline			1	757	A1	Zahlen	138	1
10	1	1428	Baseline			0	1147	A1	Zahlen	139	1
10	2	765	Baseline			1	640	A2	Buchstaben	140	2
10	1	820	Baseline			1	642	A1	Zahlen	141	2
10	1	697	Baseline			1	564	A1	Zahlen	142	1
10	1	892	Baseline			1	576	A1	Zahlen	143	1
10	1	650	Baseline			1	597	A1	Zahlen	144	1
10	1	689	Baseline			1	548	A2	Buchstaben	145	2
10	1	552	Baseline			1	536	A2	Buchstaben	146	1
10	2	622	Baseline			1	468	A1	Zahlen	147	2
10	1	462	Baseline			1	500	A1	Zahlen	148	1
10	1	450	Baseline			1	477	A1	Zahlen	149	1
10	1	474	Baseline			1	547	A1	Zahlen	150	1
10	1	921	Baseline			1	642	A2	Buchstaben	151	2
10	1	632	Baseline			1	649	A2	Buchstaben	152	1
10	2	581	Baseline			1	555	A1	Zahlen	153	2
10	1	476	Baseline			1	620	A2	Buchstaben	154	2
10	1	463	Baseline			1	581	A1	Zahlen	155	2
10	1	373	Baseline			1	744	A1	Zahlen	156	1
10	1	658	Baseline			1	601	A1	Zahlen	157	1
10	1	639	Baseline			1	544	A1	Zahlen	158	1
10	2	459	Baseline			1	617	A2	Buchstaben	159	2
10	1	464	Baseline			1	591	A2	Buchstaben	160	1
10	1	487	Baseline			1	490	A2	Buchstaben	161	1
10	1	496	Baseline			1	547	A1	Zahlen	162	2
10	1	609	Baseline			1	676	A2	Buchstaben	163	2
10	1	927	Baseline			1	891	A1	Zahlen	164	2
10	2	511	Baseline			1	527	A2	Buchstaben	165	2
10	1	698	Baseline			1	504	A1	Zahlen	166	2
10	1	443	Baseline			1	635	A2	Buchstaben	167	2
10	1	481	Baseline			1	633	A2	Buchstaben	168	1
10	2	455	Baseline			1	626	A1	Zahlen	169	2
10	1	352	Baseline			1	544	A2	Buchstaben	170	2
10	1	420	Baseline			1	577	A2	Buchstaben	171	1
10	1	624	Baseline			1	573	A1	Zahlen	172	2
10	1	555	Baseline			1	499	A2	Buchstaben	173	2
10	1	516	Baseline			1	620	A1	Zahlen	174	2
10											2
10	1	1560	Test	2	0	1	571	A1	Zahlen	1	2
10	1	722	Test	1	4	1	480	A2	Buchstaben	2	2
10	1	649	Test	2	2	1	401	A1	Zahlen	3	2
10	2	1362	Test	2	3	1	392	A1	Zahlen	4	1
10	1	584	Test	2	3	1	461	A2	Buchstaben	5	2
10	1	486	Test	2	3	0	387	A1	Zahlen	6	2
10	1	641	Test	1	4	1	493	A1	Zahlen	7	1
10	1	468	Test	2	2	1	513	A2	Buchstaben	8	2
10	1	551	Test	1	4	1	412	A1	Zahlen	9	2
10	2	560	Test	2	2	1	462	A2	Buchstaben	10	2
10	1	435	Test	2	3	1	412	A2	Buchstaben	11	1
10	1	821	Test	1	4	1	412	A2	Buchstaben	12	1
10	1	903	Test	1	1	0	573	A1	Zahlen	13	2
10	1	496	Test	1	1	1	492	A2	Buchstaben	14	2
10	1	516	Test	1	1	1	542	A2	Buchstaben	15	1
10	2	730	Test	2	2	1	490	A1	Zahlen	16	2
10	1	631	Test	1	4	1	407	A1	Zahlen	17	1
10	1	1021	Test	2	2	1	452	A1	Zahlen	18	1
10	1	458	Test	1	4	1	477	A2	Buchstaben	19	2
10	1	664	Test	1	1	1	439	A1	Zahlen	20	2
10	1	679	Test	1	1	1	457	A1	Zahlen	21	1
10	2	635	Test	2	2	1	467	A2	Buchstaben	22	2
10	1	537	Test	2	3	1	495	A1	Zahlen	23	2
10	1	503	Test	2	3	1	504	A2	Buchstaben	24	2
10	1	470	Test	2	3	1	507	A2	Buchstaben	25	1
10	1	638	Test	2	3	0	457	A2	Buchstaben	26	1
10	2	553	Test	2	3	1	451	A2	Buchstaben	27	1
10	1	690	Test	2	3	1	438	A2	Buchstaben	28	1
10	1	654	Test	1	4	1	602	A1	Zahlen	29	2
10	1	440	Test	2	2	1	471	A2	Buchstaben	30	2
10	1	656	Test	2	3	1	452	A2	Buchstaben	31	1
10	1	518	Test	1	4	1	494	A2	Buchstaben	32	1
10	1	694	Test	1	1	1	450	A2	Buchstaben	33	1
10	2	737	Test	2	2	1	468	A1	Zahlen	34	2
10	1	766	Test	2	3	1	418	A1	Zahlen	35	1
10	1	592	Test	2	3	1	442	A1	Zahlen	36	1
10	1	630	Test	2	3	1	505	A1	Zahlen	37	1
10	1	562	Test	2	3	1	460	A1	Zahlen	38	1
10	1	603	Test	2	3	1	460	A1	Zahlen	39	1
10	2	809	Test	2	3	1	485	A2	Buchstaben	40	2
10	1	554	Test	1	4	1	419	A1	Zahlen	41	2
10	1	664	Test	1	1	1	544	A1	Zahlen	42	1
10	1	609	Test	2	2	1	645	A1	Zahlen	43	1
10	2	731	Test	2	3	1	495	A1	Zahlen	44	1
10	1	665	Test	2	3	1	479	A2	Buchstaben	45	2
10	1	402	Test	1	4	1	484	A2	Buchstaben	46	1
10	1	555	Test	1	1	1	491	A1	Zahlen	47	2
10	1	542	Test	1	1	1	477	A1	Zahlen	48	1
10	1	375	Test	1	1	1	466	A1	Zahlen	49	1
10	2	479	Test	2	2	1	471	A1	Zahlen	50	1
10	1	293	Test	1	4	1	459	A1	Zahlen	51	1
10	1	714	Test	2	2	1	459	A2	Buchstaben	52	2
10	1	499	Test	1	4	1	437	A2	Buchstaben	53	1
10	1	423	Test	2	2	1	471	A2	Buchstaben	54	1
10	1	746	Test	1	4	1	457	A1	Zahlen	55	2
10	2	544	Test	2	2	1	480	A2	Buchstaben	56	2
10	1	633	Test	1	4	1	507	A1	Zahlen	57	2
10	1	482	Test	1	1	1	426	A2	Buchstaben	58	2
10	1	472	Test	2	2	1	391	A2	Buchstaben	59	1
10	2	835	Test	2	3	1	403	A2	Buchstaben	60	1
10	1	815	Test	2	3	1	593	A1	Zahlen	61	2
10	1	473	Test	2	3	1	469	A1	Zahlen	62	1
10	1	479	Test	1	4	1	433	A2	Buchstaben	63	2
10	2	554	Test	2	2	1	427	A2	Buchstaben	64	1
10	1	440	Test	1	4	1	424	A2	Buchstaben	65	1
10	1	457	Test	2	2	1	427	A2	Buchstaben	66	1
10	1	753	Test	2	3	1	449	A1	Zahlen	67	2
10	2	596	Test	2	3	1	382	A2	Buchstaben	68	2
10	1	559	Test	1	4	1	384	A1	Zahlen	69	2
10	1	506	Test	2	2	1	456	A1	Zahlen	70	1
10	1	451	Test	1	4	1	374	A2	Buchstaben	71	2
10	2	608	Test	2	2	1	413	A2	Buchstaben	72	1
10	1	457	Test	2	3	1	455	A2	Buchstaben	73	1
10	1	687	Test	2	3	1	444	A2	Buchstaben	74	1
10	1	971	Test	2	3	1	450	A2	Buchstaben	75	1
10	1	586	Test	1	4	1	385	A1	Zahlen	76	2
10	1	838	Test	1	1	1	447	A2	Buchstaben	77	2
10	1	685	Test	1	1	1	448	A2	Buchstaben	78	1
10	2	510	Test	2	2	1	496	A2	Buchstaben	79	1
10	1	642	Test	2	3	1	506	A1	Zahlen	80	2
10	1	410	Test	2	3	1	506	A2	Buchstaben	81	2
10	1	760	Test	2	3	1	826	A1	Zahlen	82	2
10	1	440	Test	2	3	1	471	A2	Buchstaben	83	2
10	2	682	Test	2	3	1	404	A2	Buchstaben	84	1
10	1	584	Test	1	4	1	439	A2	Buchstaben	85	1
10	1	326	Test	1	1	1	480	A2	Buchstaben	86	1
10	1	895	Test	1	1	1	513	A2	Buchstaben	87	1
10	1	570	Test	1	1	1	485	A2	Buchstaben	88	1
10	1	496	Test	1	1	1	510	A2	Buchstaben	89	1
10	1	957	Test	2	2	1	486	A1	Zahlen	90	2
10	2	535	Test	2	3	1	369	A2	Buchstaben	91	2
10	1	424	Test	2	3	1	420	A2	Buchstaben	92	1
10	1	352	Test	1	4	1	447	A2	Buchstaben	93	1
10	1	361	Test	1	1	1	450	A2	Buchstaben	94	1
10	1	488	Test	1	1	1	446	A2	Buchstaben	95	1
10	1	310	Test	2	2	1	499	A2	Buchstaben	96	1
10	2	553	Test	2	3	0	473	A2	Buchstaben	97	1
10	1	678	Test	1	4	1	484	A2	Buchstaben	98	1
10	1	369	Test	1	1	1	458	A2	Buchstaben	99	1
10	1	306	Test	1	1	1	504	A2	Buchstaben	100	1
10	2	824	Test	2	2	1	456	A2	Buchstaben	101	1
10	1	319	Test	1	4	1	498	A2	Buchstaben	102	1
10	1	426	Test	1	1	1	473	A2	Buchstaben	103	1
10	1	597	Test	1	1	1	442	A1	Zahlen	104	2
10	1	576	Test	1	1	1	439	A2	Buchstaben	105	2
10	1	513	Test	2	2	1	442	A1	Zahlen	106	2
10	2	887	Test	2	3	1	512	A1	Zahlen	107	1
10	1	537	Test	1	4	1	360	A2	Buchstaben	108	2
10	1	549	Test	1	1	1	435	A1	Zahlen	109	2
10	1	397	Test	1	1	0	421	A2	Buchstaben	110	2
10	1	700	Test	1	1	1	557	A1	Zahlen	111	2
10	1	576	Test	2	2	1	486	A1	Zahlen	112	1
10	2	551	Test	2	3	1	537	A2	Buchstaben	113	2
10	1	570	Test	1	4	1	663	A1	Zahlen	114	2
10	1	683	Test	2	2	1	479	A2	Buchstaben	115	2
10	1	396	Test	2	3	1	470	A2	Buchstaben	116	1
10	2	532	Test	2	3	1	476	A2	Buchstaben	117	1
10	1	357	Test	1	4	1	505	A2	Buchstaben	118	1
10	1	394	Test	2	2	1	458	A2	Buchstaben	119	1
10	1	706	Test	1	4	1	498	A2	Buchstaben	120	1
10	2	544	Test	2	2	1	512	A2	Buchstaben	121	1
10	1	353	Test	2	3	1	516	A2	Buchstaben	122	1
10	1	612	Test	1	4	1	565	A1	Zahlen	123	2
10	1	510	Test	1	1	1	550	A1	Zahlen	124	1
10	1	441	Test	2	2	1	546	A1	Zahlen	125	1
10	1	466	Test	2	3	1	1163	A1	Zahlen	126	1
10	2	621	Test	2	3	1	466	A2	Buchstaben	127	2
10	1	402	Test	1	4	1	467	A2	Buchstaben	128	1
10	1	587	Test	1	1	1	492	A1	Zahlen	129	2
10	1	497	Test	2	2	1	612	A1	Zahlen	130	1
10	1	463	Test	2	3	1	477	A2	Buchstaben	131	2
10	1	665	Test	2	3	1	479	A2	Buchstaben	132	1
10	1	510	Test	1	4	1	543	A2	Buchstaben	133	1
10	2	496	Test	2	2	1	501	A2	Buchstaben	134	1
10	1	689	Test	2	3	1	632	A1	Zahlen	135	2
10	1	608	Test	1	4	1	557	A1	Zahlen	136	1
10	1	539	Test	2	2	1	449	A1	Zahlen	137	1
10	1	631	Test	1	4	1	497	A2	Buchstaben	138	2
10	1	588	Test	1	1	1	555	A1	Zahlen	139	2
10	1	569	Test	2	2	1	507	A1	Zahlen	140	1
10	2	818	Test	2	3	1	473	A2	Buchstaben	141	2
10	1	636	Test	2	3	1	453	A2	Buchstaben	142	1
10	1	669	Test	2	3	1	454	A1	Zahlen	143	2
10	1	668	Test	2	3	1	435	A2	Buchstaben	144	2
10	1	447	Test	1	4	1	423	A2	Buchstaben	145	1
10	1	557	Test	1	1	1	431	A1	Zahlen	146	2
10	1	472	Test	1	1	1	395	A2	Buchstaben	147	2
10	2	715	Test	2	2	1	387	A2	Buchstaben	148	1
10	1	457	Test	1	4	1	400	A2	Buchstaben	149	1
10	1	473	Test	1	1	1	490	A1	Zahlen	150	2
10	1	500	Test	2	2	1	427	A1	Zahlen	151	1
10	1	480	Test	1	4	1	472	A1	Zahlen	152	1
10	1	480	Test	1	1	1	418	A2	Buchstaben	153	2
10	1	704	Test	1	1	1	431	A2	Buchstaben	154	1
10	2	1063	Test	2	2	1	436	A2	Buchstaben	155	1
10	1	594	Test	2	3	1	378	A1	Zahlen	156	2
10	1	392	Test	1	4	1	416	A2	Buchstaben	157	2
10	1	587	Test	1	1	1	458	A1	Zahlen	158	2
10	1	494	Test	1	1	1	456	A1	Zahlen	159	1
10	2	456	Test	2	2	1	483	A2	Buchstaben	160	2
10	1	449	Test	2	3	1	467	A2	Buchstaben	161	1
10	1	548	Test	2	3	1	451	A1	Zahlen	162	2
10	1	455	Test	1	4	1	554	A2	Buchstaben	163	2
10	1	443	Test	2	2	1	412	A1	Zahlen	164	2
10	2	437	Test	2	3	1	538	A2	Buchstaben	165	2
10	1	603	Test	1	4	1	435	A1	Zahlen	166	2
10	1	611	Test	2	2	1	449	A1	Zahlen	167	1
10	1	438	Test	1	4	1	455	A1	Zahlen	168	1
10	1	718	Test	1	1	1	440	A2	Buchstaben	169	2
10	1	972	Test	2	2	1	425	A2	Buchstaben	170	1
10	1	622	Test	2	3	1	413	A1	Zahlen	171	2
10	2	724	Test	2	3	1	393	A2	Buchstaben	172	2
10	1	442	Test	1	4	1	459	A2	Buchstaben	173	1
10	1	515	Test	1	1	1	525	A1	Zahlen	174	2
10	1	446	Test	1	1	1	648	A1	Zahlen	175	1
10	1	422	Test	2	2	1	436	A2	Buchstaben	176	2
10	1	610	Test	1	4	1	472	A2	Buchstaben	177	1
10	2	427	Test	2	2	1	506	A2	Buchstaben	178	1
10	1	433	Test	1	4	1	449	A1	Zahlen	179	2
10	1	626	Test	1	1	1	440	A1	Zahlen	180	1
10	1	344	Test	2	2	1	449	A2	Buchstaben	181	2
10	1	683	Test	1	4	1	427	A1	Zahlen	182	2
10	2	446	Test	2	2	1	392	A2	Buchstaben	183	2
10	1	353	Test	1	4	1	461	A2	Buchstaben	184	1
10	1	646	Test	1	1	1	405	A1	Zahlen	185	2
10	1	655	Test	1	1	1	442	A2	Buchstaben	186	2
10	1	476	Test	2	2	1	460	A1	Zahlen	187	2
10	1	482	Test	2	3	1	446	A2	Buchstaben	188	2
10	2	408	Test	2	3	1	674	A2	Buchstaben	189	1
10	1	951	Test	2	3	1	483	A2	Buchstaben	190	1
10	1	567	Test	1	4	1	433	A1	Zahlen	191	2
10	1	394	Test	1	1	1	473	A1	Zahlen	192	1
10	1	431	Test	2	2	1	440	A2	Buchstaben	193	2
10	2	426	Test	2	3	1	529	A2	Buchstaben	194	1
10	1	568	Test	2	3	1	411	A1	Zahlen	195	2
10	1	560	Test	1	4	1	457	A2	Buchstaben	196	2
10	1	363	Test	1	1	1	443	A2	Buchstaben	197	1
10	1	607	Test	2	2	1	458	A1	Zahlen	198	2
10	2	442	Test	2	3	1	451	A1	Zahlen	199	1
10	1	685	Test	2	3	1	385	A2	Buchstaben	200	2
10	1	389	Test	1	4	1	478	A2	Buchstaben	201	1
10	1	709	Test	1	1	1	454	A2	Buchstaben	202	1
10	1	590	Test	2	2	1	400	A1	Zahlen	203	2
10	2	439	Test	2	3	1	460	A2	Buchstaben	204	2
10	1	556	Test	1	4	1	563	A1	Zahlen	205	2
10	1	430	Test	1	1	1	443	A1	Zahlen	206	1
10	1	399	Test	1	1	1	450	A2	Buchstaben	207	2
10	1	449	Test	1	1	0	437	A2	Buchstaben	208	1
10	2	681	Test	2	2	1	522	A2	Buchstaben	209	1
10	1	537	Test	2	3	1	591	A1	Zahlen	210	2
10	1	703	Test	1	4	1	534	A1	Zahlen	211	1
10	1	475	Test	1	1	1	517	A1	Zahlen	212	1
10	1	487	Test	1	1	1	434	A2	Buchstaben	213	2
10	1	354	Test	1	1	1	450	A2	Buchstaben	214	1
10	2	603	Test	2	2	1	445	A2	Buchstaben	215	1
10	1	655	Test	2	3	1	482	A1	Zahlen	216	2
10	1	770	Test	2	3	1	471	A2	Buchstaben	217	2
10	1	534	Test	1	4	1	489	A1	Zahlen	218	2
10	2	647	Test	2	2	1	403	A2	Buchstaben	219	2
10	1	661	Test	2	3	1	517	A2	Buchstaben	220	1
10	1	569	Test	2	3	1	485	A1	Zahlen	221	2
10	1	391	Test	2	3	1	495	A2	Buchstaben	222	2
10	1	651	Test	2	3	1	502	A2	Buchstaben	223	1
10	2	423	Test	2	3	1	484	A2	Buchstaben	224	1
10	1	704	Test	2	3	1	502	A2	Buchstaben	225	1
10	1	800	Test	2	3	1	481	A1	Zahlen	226	2
10	1	474	Test	1	4	1	491	A2	Buchstaben	227	2
10	2	370	Test	2	2	1	518	A2	Buchstaben	228	1
10	1	602	Test	1	4	1	483	A1	Zahlen	229	2
10	1	507	Test	2	2	1	475	A1	Zahlen	230	1
10	1	457	Test	2	3	1	455	A2	Buchstaben	231	2
10	2	399	Test	2	3	1	465	A2	Buchstaben	232	1
10	1	545	Test	2	3	1	456	A1	Zahlen	233	2
10	1	392	Test	2	3	1	515	A1	Zahlen	234	1
10	1	450	Test	2	3	1	528	A1	Zahlen	235	1
10	1	440	Test	2	3	1	497	A1	Zahlen	236	1
10	1	1332	Test	1	4	0	533	A1	Zahlen	237	1
10	1	414	Test	1	1	1	505	A1	Zahlen	238	1
10	2	593	Test	2	2	1	514	A1	Zahlen	239	1
10	1	631	Test	2	3	1	568	A1	Zahlen	240	1
10	1	560	Test	2	3	1	426	A1	Zahlen	241	1
10	1	627	Test	2	3	1	507	A2	Buchstaben	242	2
10	1	535	Test	2	3	1	428	A2	Buchstaben	243	1
10	1	578	Test	2	3	1	450	A1	Zahlen	244	2
10	2	649	Test	2	3	1	461	A2	Buchstaben	245	2
10	1	425	Test	2	3	1	438	A2	Buchstaben	246	1
10	1	623	Test	2	3	1	518	A1	Zahlen	247	2
10	1	426	Test	2	3	1	528	A1	Zahlen	248	1
10	2	433	Test	2	3	1	481	A2	Buchstaben	249	2
10	1	399	Test	1	4	1	536	A2	Buchstaben	250	1
10	1	391	Test	2	2	1	503	A2	Buchstaben	251	1
10	1	610	Test	1	4	1	478	A2	Buchstaben	252	1
10	1	539	Test	2	2	1	473	A1	Zahlen	253	2
10	1	436	Test	2	3	1	483	A2	Buchstaben	254	2
10	2	495	Test	2	3	1	467	A2	Buchstaben	255	1
10	1	555	Test	1	4	1	442	A1	Zahlen	256	2
10	1	376	Test	2	2	1	490	A2	Buchstaben	257	2
10	1	456	Test	1	4	1	533	A1	Zahlen	258	2
10	1	737	Test	1	1	1	505	A2	Buchstaben	259	2
10	2	559	Test	2	2	1	482	A2	Buchstaben	260	1
10	1	672	Test	2	3	1	464	A1	Zahlen	261	2
10	1	407	Test	1	4	1	482	A2	Buchstaben	262	2
10	1	511	Test	1	1	1	512	A1	Zahlen	263	2
10	1	523	Test	2	2	1	467	A1	Zahlen	264	1
10	1	423	Test	1	4	1	444	A2	Buchstaben	265	2
10	2	442	Test	2	2	1	602	A2	Buchstaben	266	1
10	1	571	Test	2	3	1	415	A2	Buchstaben	267	1
10	1	543	Test	1	4	1	469	A1	Zahlen	268	2
10	1	480	Test	1	1	1	897	A1	Zahlen	269	1
10	1	594	Test	2	2	1	501	A2	Buchstaben	270	2
10	1	426	Test	2	3	1	552	A2	Buchstaben	271	1
10	2	405	Test	2	3	1	486	A2	Buchstaben	272	1
10	1	592	Test	2	3	1	434	A2	Buchstaben	273	1
10	1	473	Test	2	3	1	465	A1	Zahlen	274	2
10	1	509	Test	1	4	1	578	A1	Zahlen	275	1
10	1	480	Test	2	2	1	488	A1	Zahlen	276	1
10	2	468	Test	2	3	1	538	A2	Buchstaben	277	2
10	1	555	Test	1	4	1	427	A1	Zahlen	278	2
10	1	417	Test	1	1	1	467	A1	Zahlen	279	1
10	1	529	Test	2	2	1	508	A1	Zahlen	280	1
10	1	415	Test	2	3	1	506	A2	Buchstaben	281	2
10	1	424	Test	1	4	1	496	A1	Zahlen	282	2
10	2	694	Test	2	2	1	462	A2	Buchstaben	283	2
10	1	468	Test	2	3	1	434	A1	Zahlen	284	2
10	1	383	Test	1	4	1	526	A2	Buchstaben	285	2
10	1	354	Test	1	1	1	507	A2	Buchstaben	286	1
10	1	482	Test	1	1	1	420	A1	Zahlen	287	2
10	2	531	Test	2	2	1	470	A2	Buchstaben	288	2
10	1	345	Test	2	3	1	503	A2	Buchstaben	289	1
10	1	502	Test	2	3	1	483	A1	Zahlen	290	2
10	1	399	Test	2	3	1	424	A2	Buchstaben	291	2
10	1	507	Test	2	3	1	432	A1	Zahlen	292	2
10	1	453	Test	2	3	1	473	A1	Zahlen	293	1
10	1	446	Test	2	3	1	448	A2	Buchstaben	294	2
10	2	393	Test	2	3	1	459	A2	Buchstaben	295	1
10	1	511	Test	2	3	1	497	A2	Buchstaben	296	1
10	1	432	Test	2	3	1	471	A2	Buchstaben	297	1
10	1	653	Test	2	3	1	449	A1	Zahlen	298	2
10	2	534	Test	2	3	1	419	A2	Buchstaben	299	2
10	1	433	Test	1	4	1	465	A2	Buchstaben	300	1
10	1	486	Test	1	1	1	466	A1	Zahlen	301	2
10	1	432	Test	1	1	1	502	A1	Zahlen	302	1
10	2	828	Test	2	2	1	444	A2	Buchstaben	303	2
10	1	480	Test	2	3	1	425	A1	Zahlen	304	2
10	1	329	Test	2	3	1	492	A2	Buchstaben	305	2
10	1	470	Test	2	3	1	488	A1	Zahlen	306	2
10	1	433	Test	1	4	1	602	A1	Zahlen	307	1
10	2	436	Test	2	2	1	405	A2	Buchstaben	308	2
10	1	375	Test	2	3	1	434	A2	Buchstaben	309	1
10	1	418	Test	2	3	1	369	A2	Buchstaben	310	1
10	1	541	Test	2	3	1	469	A1	Zahlen	311	2
10	1	348	Test	2	3	1	459	A2	Buchstaben	312	2
10	1	361	Test	2	3	1	519	A2	Buchstaben	313	1
10	2	732	Test	2	3	1	480	A2	Buchstaben	314	1
10	1	533	Test	1	4	1	434	A1	Zahlen	315	2
10	1	469	Test	2	2	1	436	A1	Zahlen	316	1
10	1	460	Test	1	4	1	480	A2	Buchstaben	317	2
10	1	730	Test	1	1	1	421	A1	Zahlen	318	2
10	2	527	Test	2	2	1	437	A2	Buchstaben	319	2
10	1	514	Test	1	4	1	410	A1	Zahlen	320	2
10	1	451	Test	2	2	1	445	A2	Buchstaben	321	2
10	1	518	Test	2	3	1	544	A1	Zahlen	322	2
10	1	497	Test	2	3	1	422	A1	Zahlen	323	1
10	2	514	Test	2	3	1	442	A2	Buchstaben	324	2
10	1	552	Test	2	3	1	392	A1	Zahlen	325	2
10	1	499	Test	1	4	1	500	A1	Zahlen	326	1
10	1	506	Test	1	1	1	416	A1	Zahlen	327	1
10	1	450	Test	1	1	1	445	A1	Zahlen	328	1
10	2	585	Test	2	2	1	375	A2	Buchstaben	329	2
10	1	458	Test	2	3	1	481	A2	Buchstaben	330	1
10	1	770	Test	2	3	1	438	A1	Zahlen	331	2
10	1	452	Test	2	3	1	390	A1	Zahlen	332	1
10	1	449	Test	2	3	1	460	A2	Buchstaben	333	2
10	1	652	Test	2	3	1	456	A2	Buchstaben	334	1
10	1	395	Test	1	4	1	434	A2	Buchstaben	335	1
10	2	454	Test	2	2	1	472	A2	Buchstaben	336	1
10	1	494	Test	2	3	1	452	A1	Zahlen	337	2
10	1	516	Test	1	4	1	479	A1	Zahlen	338	1
10	1	755	Test	1	1	1	460	A2	Buchstaben	339	2
10	1	743	Test	1	1	1	407	A2	Buchstaben	340	1
10	2	585	Test	2	2	1	411	A2	Buchstaben	341	1
10	1	458	Test	2	3	1	448	A2	Buchstaben	342	1
10	1	550	Test	2	3	1	399	A2	Buchstaben	343	1
10	1	487	Test	2	3	1	426	A2	Buchstaben	344	1
10	1	604	Test	1	4	1	546	A1	Zahlen	345	2
10	1	536	Test	2	2	1	462	A2	Buchstaben	346	2
10	2	801	Test	2	3	1	442	A2	Buchstaben	347	1
10	1	418	Test	1	4	1	544	A2	Buchstaben	348	1
10	1	507	Test	1	1	1	425	A2	Buchstaben	349	1
10	1	497	Test	1	1	1	526	A1	Zahlen	350	2
10	1	482	Test	1	1	1	558	A2	Buchstaben	351	2
10	1	516	Test	1	1	1	463	A1	Zahlen	352	2
11			Practice			1	830	A2			2
11			Practice			1	539	A2			1
11			Practice			1	558	A2			1
11			Practice			1	594	A2			1
11			Practice			1	614	A2			1
11			Practice			1	631	A2			1
11			Practice			1	582	A2			1
11			Practice			1	634	A2			1
11			Practice			1	504	A2			1
11			Practice			1	639	A2			1
11			Practice			1	603	A2			1
11			Practice			1	551	A2			1
11			Practice			1	640	A2			1
11			Practice			1	473	A2			1
11			Practice			1	447	A2			1
11			Practice			1	459	A2			1
11			Practice			1	514	A1			2
11			Practice			1	587	A1			1
11			Practice			1	602	A1			1
11			Practice			1	510	A1			1
11			Practice			1	577	A1			1
11			Practice			1	530	A1			1
11			Practice			1	710	A1			1
11			Practice			1	861	A1			1
11			Practice			1	1169	A1			1
11			Practice			1	558	A1			1
11			Practice			1	541	A1			1
11			Practice			1	995	A1			1
11			Practice			1	869	A1			1
11			Practice			1	540	A1			1
11			Practice			1	568	A1			1
11			Practice			1	1097	A1			1
11		7656	Practice			1	2238	A2			2
11		4291	Practice			1	1130	A1			2
11		2970	Practice			1	1923	A2			2
11		1813	Practice			1	796	A2			1
11		1302	Practice			1	1397	A1			2
11		915	Practice			1	1221	A1			1
11		2158	Practice			1	825	A1			1
11		739	Practice			1	1057	A1			1
11		1441	Practice			1	1243	A2			2
11		2416	Practice			1	1154	A2			1
11		689	Practice			1	932	A1			2
11		3765	Practice			1	1143	A2			2
11		834	Practice			1	1075	A1			2
11		1202	Practice			1	747	A2			2
11		1098	Practice			1	597	A2			1
11		465	Practice			1	622	A1			2
11		456	Practice			1	674	A1			1
11		625	Practice			1	534	A1			1
11		2879	Practice			1	693	A2			2
11		480	Practice			1	649	A1			2
11		1121	Practice			1	891	A2			2
11		610	Practice			1	1117	A1			2
11		707	Practice			1	794	A1			1
11		1663	Practice			1	680	A2			2
11		1472	Practice			1	715	A2			1
11		575	Practice			1	475	A1			2
11		771	Practice			1	703	A1			1
11		375	Practice			1	538	A1			1
11		1735	Practice			1	941	A2			2
11		721	Practice			1	451	A2			1
11		911	Practice			1	542	A2			1
11		955	Practice			1	484	A2			1
11	1	444	Baseline			1	1775	A1	Zahlen	1	2
11	1	815	Baseline			1	594	A1	Zahlen	2	1
11	1	729	Baseline			1	484	A1	Zahlen	3	1
11	1	1327	Baseline			1	731	A2	Buchstaben	4	2
11	1	577	Baseline			1	1212	A1	Zahlen	5	2
11	2	1646	Baseline			1	715	A2	Buchstaben	6	2
11	1	521	Baseline			1	1065	A1	Zahlen	7	2
11	1	643	Baseline			1	707	A1	Zahlen	8	1
11	1	975	Baseline			1	771	A2	Buchstaben	9	2
11	1	2481	Baseline			1	664	A2	Buchstaben	10	1
11	1	782	Baseline			1	717	A2	Buchstaben	11	1
11	2	757	Baseline			1	758	A1	Zahlen	12	2
11	1	1075	Baseline			1	829	A2	Buchstaben	13	2
11	1	988	Baseline			1	715	A2	Buchstaben	14	1
11	1	851	Baseline			1	799	A2	Buchstaben	15	1
11	1	1072	Baseline			1	826	A2	Buchstaben	16	1
11	1	1059	Baseline			1	746	A2	Buchstaben	17	1
11	2	1017	Baseline			1	648	A1	Zahlen	18	2
11	1	920	Baseline			1	681	A2	Buchstaben	19	2
11	1	886	Baseline			1	705	A2	Buchstaben	20	1
11	1	621	Baseline			1	539	A2	Buchstaben	21	1
11	2	872	Baseline			1	1089	A2	Buchstaben	22	1
11	1	640	Baseline			1	1513	A1	Zahlen	23	2
11	1	774	Baseline			1	761	A2	Buchstaben	24	2
11	1	1152	Baseline			1	850	A1	Zahlen	25	2
11	1	686	Baseline			1	617	A1	Zahlen	26	1
11	2	936	Baseline			1	811	A2	Buchstaben	27	2
11	1	362	Baseline			1	762	A1	Zahlen	28	2
11	1	595	Baseline			1	579	A2	Buchstaben	29	2
11	1	642	Baseline			1	618	A2	Buchstaben	30	1
11	1	751	Baseline			1	559	A2	Buchstaben	31	1
11	2	611	Baseline			1	741	A1	Zahlen	32	2
11	1	749	Baseline			1	603	A2	Buchstaben	33	2
11	1	468	Baseline			1	921	A1	Zahlen	34	2
11	1	688	Baseline			0	731	A2	Buchstaben	35	2
11	1	609	Baseline			1	724	A1	Zahlen	36	2
11	1	538	Baseline			1	712	A1	Zahlen	37	1
11	1	1035	Baseline			1	669	A2	Buchstaben	38	2
11	2	784	Baseline			1	662	A2	Buchstaben	39	1
11	1	718	Baseline			1	767	A2	Buchstaben	40	1
11	1	682	Baseline			1	659	A2	Buchstaben	41	1
11	1	627	Baseline			1	665	A1	Zahlen	42	2
11	1	1338	Baseline			1	858	A1	Zahlen	43	1
11	2	708	Baseline			1	819	A2	Buchstaben	44	2
11	1	552	Baseline			1	729	A2	Buchstaben	45	1
11	1	1425	Baseline			1	1025	A1	Zahlen	46	2
11	1	1129	Baseline			1	645	A2	Buchstaben	47	2
11	1	1096	Baseline			1	679	A2	Buchstaben	48	1
11	2	1456	Baseline			0	711	A2	Buchstaben	49	1
11	1	688	Baseline			1	611	A2	Buchstaben	50	1
11	1	615	Baseline			1	818	A1	Zahlen	51	2
11	1	753	Baseline			1	609	A2	Buchstaben	52	2
11	1	576	Baseline			1	634	A1	Zahlen	53	2
11	1	652	Baseline			1	846	A1	Zahlen	54	1
11	2	907	Baseline			1	521	A1	Zahlen	55	1
11	1	388	Baseline			1	833	A1	Zahlen	56	1
11	1	424	Baseline			1	725	A1	Zahlen	57	1
11	1	857	Baseline			1	887	A2	Buchstaben	58	2
11	1	1006	Baseline			1	1506	A2	Buchstaben	59	1
11	1	383	Baseline			1	660	A1	Zahlen	60	2
11	2	883	Baseline			1	654	A1	Zahlen	61	1
11	1	409	Baseline			1	555	A1	Zahlen	62	1
11	1	516	Baseline			1	1076	A1	Zahlen	63	1
11	1	1156	Baseline			1	669	A2	Buchstaben	64	2
11	1	745	Baseline			1	726	A2	Buchstaben	65	1
11	1	1282	Baseline			1	552	A2	Buchstaben	66	1
11	2	1478	Baseline			1	625	A1	Zahlen	67	2
11	1	1206	Baseline			1	571	A1	Zahlen	68	1
11	1	883	Baseline			1	712	A2	Buchstaben	69	2
11	1	473	Baseline			1	490	A1	Zahlen	70	2
11	1	647	Baseline			1	578	A1	Zahlen	71	1
11	1	811	Baseline			1	1127	A2	Buchstaben	72	2
11	1	635	Baseline			1	588	A1	Zahlen	73	2
11	2	735	Baseline			1	627	A1	Zahlen	74	1
11	1	734	Baseline			1	737	A2	Buchstaben	75	2
11	1	479	Baseline			1	751	A1	Zahlen	76	2
11	1	456	Baseline			1	826	A1	Zahlen	77	1
11	1	978	Baseline			1	560	A2	Buchstaben	78	2
11	1	606	Baseline			1	633	A2	Buchstaben	79	1
11	2	1180	Baseline			1	715	A2	Buchstaben	80	1
11	1	708	Baseline			1	722	A1	Zahlen	81	2
11	1	1110	Baseline			1	711	A1	Zahlen	82	1
11	1	643	Baseline			1	643	A2	Buchstaben	83	2
11	2	690	Baseline			1	501	A1	Zahlen	84	2
11	1	1244	Baseline			1	680	A1	Zahlen	85	1
11	1	1359	Baseline			1	497	A1	Zahlen	86	1
11	1	624	Baseline			1	533	A2	Buchstaben	87	2
11	1	1473	Baseline			1	723	A1	Zahlen	88	2
11	1	1233	Baseline			1	490	A1	Zahlen	89	1
11	2	723	Baseline			1	587	A1	Zahlen	90	1
11	1	766	Baseline			1	634	A2	Buchstaben	91	2
11	1	535	Baseline			1	747	A2	Buchstaben	92	1
11	1	888	Baseline			1	613	A2	Buchstaben	93	1
11	1	698	Baseline			1	697	A1	Zahlen	94	2
11	1	745	Baseline			1	640	A2	Buchstaben	95	2
11	1	435	Baseline			1	595	A1	Zahlen	96	2
11	2	898	Baseline			1	529	A1	Zahlen	97	1
11	1	635	Baseline			1	764	A2	Buchstaben	98	2
11	1	368	Baseline			1	707	A2	Buchstaben	99	1
11	1	513	Baseline			1	746	A1	Zahlen	100	2
11	2	786	Baseline			1	505	A2	Buchstaben	101	2
11	1	499	Baseline			1	569	A1	Zahlen	102	2
11	1	634	Baseline			1	547	A1	Zahlen	103	1
11	1	693	Baseline			1	432	A2	Buchstaben	104	2
11	1	423	Baseline			1	477	A1	Zahlen	105	2
11	1	775	Baseline			1	539	A2	Buchstaben	106	2
11	2	480	Baseline			1	656	A1	Zahlen	107	2
11	1	481	Baseline			1	1137	A1	Zahlen	108	1
11	1	869	Baseline			1	678	A1	Zahlen	109	1
11	1	576	Baseline			1	682	A1	Zahlen	110	1
11	1	513	Baseline			1	569	A1	Zahlen	111	1
11	1	367	Baseline			1	769	A1	Zahlen	112	1
11	1	800	Baseline			1	560	A2	Buchstaben	113	2
11	2	659	Baseline			1	745	A2	Buchstaben	114	1
11	1	699	Baseline			1	584	A2	Buchstaben	115	1
11	1	593	Baseline			1	633	A2	Buchstaben	116	1
11	1	490	Baseline			1	917	A1	Zahlen	117	2
11	1	593	Baseline			1	529	A2	Buchstaben	118	2
11	2	607	Baseline			1	602	A1	Zahlen	119	2
11	1	1312	Baseline			1	554	A2	Buchstaben	120	2
11	1	458	Baseline			1	711	A1	Zahlen	121	2
11	1	896	Baseline			1	508	A2	Buchstaben	122	2
11	1	437	Baseline			1	597	A2	Buchstaben	123	1
11	1	1152	Baseline			1	746	A2	Buchstaben	124	1
11	2	528	Baseline			1	658	A1	Zahlen	125	2
11	1	1249	Baseline			1	605	A2	Buchstaben	126	2
11	1	447	Baseline			1	611	A1	Zahlen	127	2
11	1	414	Baseline			1	634	A1	Zahlen	128	1
11	2	433	Baseline			1	674	A1	Zahlen	129	1
11	1	1530	Baseline			1	496	A1	Zahlen	130	1
11	1	1349	Baseline			1	800	A2	Buchstaben	131	2
11	1	411	Baseline			1	502	A1	Zahlen	132	2
11	1	1000	Baseline			1	522	A2	Buchstaben	133	2
11	1	1031	Baseline			1	529	A2	Buchstaben	134	1
11	2	462	Baseline			1	592	A1	Zahlen	135	2
11	1	738	Baseline			1	569	A2	Buchstaben	136	2
11	1	587	Baseline			1	640	A2	Buchstaben	137	1
11	1	378	Baseline			1	551	A1	Zahlen	138	2
11	1	423	Baseline			1	581	A1	Zahlen	139	1
11	2	1560	Baseline			1	546	A1	Zahlen	140	1
11	1	387	Baseline			1	608	A1	Zahlen	141	1
11	1	694	Baseline			1	977	A2	Buchstaben	142	2
11	1	453	Baseline			1	720	A1	Zahlen	143	2
11	1	398	Baseline			1	694	A1	Zahlen	144	1
11	2	935	Baseline			1	562	A1	Zahlen	145	1
11	1	706	Baseline			1	584	A2	Buchstaben	146	2
11	1	1177	Baseline			1	599	A2	Buchstaben	147	1
11	1	497	Baseline			1	491	A1	Zahlen	148	2
11	1	1476	Baseline			1	662	A1	Zahlen	149	1
11	1	967	Baseline			1	1082	A1	Zahlen	150	1
11	1	756	Baseline			1	573	A1	Zahlen	151	1
11	2	643	Baseline			1	619	A1	Zahlen	152	1
11	1	551	Baseline			1	663	A1	Zahlen	153	1
11	1	490	Baseline			1	588	A1	Zahlen	154	1
11	1	407	Baseline			1	618	A1	Zahlen	155	1
11	1	1440	Baseline			1	498	A2	Buchstaben	156	2
11	1	415	Baseline			1	578	A1	Zahlen	157	2
11	2	619	Baseline			1	648	A1	Zahlen	158	1
11	1	432	Baseline			1	497	A1	Zahlen	159	1
11	1	483	Baseline			1	604	A1	Zahlen	160	1
11	1	497	Baseline			1	799	A2	Buchstaben	161	2
11	1	522	Baseline			1	443	A1	Zahlen	162	2
11	1	589	Baseline			0	468	A2	Buchstaben	163	2
11	2	587	Baseline			1	841	A2	Buchstaben	164	1
11	1	492	Baseline			1	527	A1	Zahlen	165	2
11	1	581	Baseline			1	483	A1	Zahlen	166	1
11	1	1522	Baseline			1	512	A2	Buchstaben	167	2
11	1	936	Baseline			1	755	A2	Buchstaben	168	1
11	1	487	Baseline			1	593	A1	Zahlen	169	2
11	2	1041	Baseline			1	794	A1	Zahlen	170	1
11	1	881	Baseline			1	521	A2	Buchstaben	171	2
11	1	701	Baseline			1	659	A2	Buchstaben	172	1
11	1	641	Baseline			1	585	A2	Buchstaben	173	1
11	1	471	Baseline			1	687	A2	Buchstaben	174	1
11											2
11	1	793	Test	2	0	1	1586	A2	Buchstaben	1	2
11	1	2274	Test	2	3	1	478	A2	Buchstaben	2	1
11	1	751	Test	1	4	1	480	A1	Zahlen	3	2
11	1	952	Test	1	1	1	450	A1	Zahlen	4	1
11	2	821	Test	2	2	1	436	A1	Zahlen	5	1
11	1	572	Test	2	3	1	488	A1	Zahlen	6	1
11	1	394	Test	2	3	1	451	A1	Zahlen	7	1
11	1	970	Test	1	4	1	399	A2	Buchstaben	8	2
11	1	1777	Test	2	2	1	346	A2	Buchstaben	9	1
11	1	487	Test	2	3	1	490	A1	Zahlen	10	2
11	1	607	Test	1	4	0	499	A2	Buchstaben	11	2
11	2	1113	Test	2	2	1	490	A1	Zahlen	12	2
11	1	944	Test	2	3	0	535	A1	Zahlen	13	1
11	1	1288	Test	1	4	1	500	A2	Buchstaben	14	2
11	1	432	Test	2	2	1	464	A2	Buchstaben	15	1
11	2	576	Test	2	3	1	603	A1	Zahlen	16	2
11	1	758	Test	2	3	1	503	A2	Buchstaben	17	2
11	1	570	Test	2	3	1	573	A2	Buchstaben	18	1
11	1	489	Test	2	3	1	507	A2	Buchstaben	19	1
11	2	577	Test	2	3	1	558	A1	Zahlen	20	2
11	1	1090	Test	1	4	0	462	A2	Buchstaben	21	2
11	1	435	Test	2	2	1	554	A1	Zahlen	22	2
11	1	890	Test	1	4	1	493	A2	Buchstaben	23	2
11	1	440	Test	2	2	1	656	A1	Zahlen	24	2
11	1	641	Test	1	4	1	482	A2	Buchstaben	25	2
11	2	658	Test	2	2	1	400	A1	Zahlen	26	2
11	1	506	Test	1	4	1	567	A2	Buchstaben	27	2
11	1	414	Test	1	1	1	448	A1	Zahlen	28	2
11	1	441	Test	2	2	1	536	A1	Zahlen	29	1
11	1	510	Test	1	4	1	611	A1	Zahlen	30	1
11	2	951	Test	2	2	1	520	A1	Zahlen	31	1
11	1	1040	Test	2	3	1	482	A2	Buchstaben	32	2
11	1	1127	Test	1	4	1	484	A1	Zahlen	33	2
11	1	418	Test	1	1	1	496	A1	Zahlen	34	1
11	1	408	Test	1	1	1	459	A1	Zahlen	35	1
11	1	445	Test	1	1	1	505	A1	Zahlen	36	1
11	2	872	Test	2	2	1	514	A1	Zahlen	37	1
11	1	1114	Test	2	3	1	468	A2	Buchstaben	38	2
11	1	508	Test	2	3	1	434	A2	Buchstaben	39	1
11	1	1215	Test	1	4	1	476	A2	Buchstaben	40	1
11	1	507	Test	2	2	1	465	A2	Buchstaben	41	1
11	1	457	Test	2	3	1	448	A1	Zahlen	42	2
11	2	871	Test	2	3	1	544	A1	Zahlen	43	1
11	1	491	Test	1	4	1	437	A2	Buchstaben	44	2
11	1	420	Test	1	1	1	425	A1	Zahlen	45	2
11	1	804	Test	1	1	1	471	A1	Zahlen	46	1
11	1	509	Test	1	1	1	402	A1	Zahlen	47	1
11	1	552	Test	1	1	1	632	A1	Zahlen	48	1
11	1	494	Test	1	1	1	497	A1	Zahlen	49	1
11	2	1050	Test	2	2	1	486	A1	Zahlen	50	1
11	1	630	Test	2	3	1	502	A1	Zahlen	51	1
11	1	935	Test	2	3	1	491	A2	Buchstaben	52	2
11	1	777	Test	1	4	1	471	A1	Zahlen	53	2
11	1	552	Test	1	1	1	408	A2	Buchstaben	54	2
11	1	552	Test	1	1	1	544	A2	Buchstaben	55	1
11	2	926	Test	2	2	1	529	A1	Zahlen	56	2
11	1	960	Test	1	4	1	513	A2	Buchstaben	57	2
11	1	583	Test	1	1	1	484	A2	Buchstaben	58	1
11	1	482	Test	2	2	1	522	A2	Buchstaben	59	1
11	1	1099	Test	2	3	1	513	A1	Zahlen	60	2
11	2	509	Test	2	3	1	547	A1	Zahlen	61	1
11	1	449	Test	1	4	1	611	A1	Zahlen	62	1
11	1	417	Test	1	1	1	571	A1	Zahlen	63	1
11	1	449	Test	2	2	1	548	A1	Zahlen	64	1
11	1	1178	Test	1	4	1	481	A2	Buchstaben	65	2
11	2	1002	Test	2	2	1	567	A1	Zahlen	66	2
11	1	411	Test	2	3	1	494	A1	Zahlen	67	1
11	1	787	Test	2	3	1	626	A2	Buchstaben	68	2
11	1	438	Test	2	3	1	540	A2	Buchstaben	69	1
11	1	340	Test	2	3	1	506	A2	Buchstaben	70	1
11	2	481	Test	2	3	1	506	A2	Buchstaben	71	1
11	1	391	Test	1	4	1	447	A2	Buchstaben	72	1
11	1	1634	Test	1	1	1	437	A2	Buchstaben	73	1
11	1	408	Test	1	1	1	523	A1	Zahlen	74	2
11	1	916	Test	1	1	1	428	A2	Buchstaben	75	2
11	2	597	Test	2	2	1	557	A1	Zahlen	76	2
11	1	1139	Test	1	4	1	466	A2	Buchstaben	77	2
11	1	420	Test	1	1	1	505	A1	Zahlen	78	2
11	1	450	Test	2	2	1	460	A1	Zahlen	79	1
11	1	365	Test	1	4	1	591	A1	Zahlen	80	1
11	2	409	Test	2	2	1	588	A1	Zahlen	81	1
11	1	1042	Test	2	3	1	427	A2	Buchstaben	82	2
11	1	892	Test	1	4	1	455	A2	Buchstaben	83	1
11	1	653	Test	1	1	1	496	A2	Buchstaben	84	1
11	1	740	Test	2	2	1	506	A2	Buchstaben	85	1
11	2	766	Test	2	3	1	566	A1	Zahlen	86	2
11	1	685	Test	1	4	1	383	A2	Buchstaben	87	2
11	1	472	Test	2	2	1	487	A1	Zahlen	88	2
11	1	627	Test	1	4	1	408	A2	Buchstaben	89	2
11	1	430	Test	1	1	1	611	A1	Zahlen	90	2
11	1	437	Test	1	1	0	453	A2	Buchstaben	91	2
11	1	736	Test	1	1	1	683	A2	Buchstaben	92	1
11	2	845	Test	2	2	1	568	A1	Zahlen	93	2
11	1	683	Test	2	3	1	735	A2	Buchstaben	94	2
11	1	736	Test	2	3	1	540	A2	Buchstaben	95	1
11	1	833	Test	1	4	1	579	A1	Zahlen	96	2
11	1	480	Test	2	2	1	561	A2	Buchstaben	97	2
11	1	385	Test	1	4	1	543	A1	Zahlen	98	2
11	1	415	Test	2	2	1	466	A1	Zahlen	99	1
11	2	903	Test	2	3	1	502	A1	Zahlen	100	1
11	1	612	Test	1	4	1	471	A2	Buchstaben	101	2
11	1	410	Test	1	1	1	517	A1	Zahlen	102	2
11	1	405	Test	2	2	1	520	A1	Zahlen	103	1
11	1	386	Test	1	4	1	496	A2	Buchstaben	104	2
11	2	475	Test	2	2	1	483	A1	Zahlen	105	2
11	1	390	Test	2	3	1	495	A1	Zahlen	106	1
11	1	753	Test	1	4	1	466	A2	Buchstaben	107	2
11	1	471	Test	1	1	1	479	A1	Zahlen	108	2
11	1	431	Test	1	1	1	527	A2	Buchstaben	109	2
11	1	1383	Test	1	1	1	487	A2	Buchstaben	110	1
11	1	938	Test	2	2	1	456	A2	Buchstaben	111	1
11	2	908	Test	2	3	1	674	A1	Zahlen	112	2
11	1	499	Test	2	3	1	593	A1	Zahlen	113	1
11	1	683	Test	2	3	1	534	A1	Zahlen	114	1
11	1	586	Test	2	3	1	488	A1	Zahlen	115	1
11	1	894	Test	2	3	1	585	A1	Zahlen	116	1
11	1	656	Test	1	4	1	587	A1	Zahlen	117	1
11	2	503	Test	2	2	1	572	A1	Zahlen	118	1
11	1	504	Test	2	3	1	509	A1	Zahlen	119	1
11	1	637	Test	2	3	1	517	A2	Buchstaben	120	2
11	1	1791	Test	1	4	1	561	A2	Buchstaben	121	1
11	2	549	Test	2	2	1	459	A1	Zahlen	122	2
11	1	1397	Test	2	3	1	527	A1	Zahlen	123	1
11	1	920	Test	2	3	1	449	A1	Zahlen	124	1
11	1	847	Test	2	3	1	475	A2	Buchstaben	125	2
11	2	544	Test	2	3	1	502	A1	Zahlen	126	2
11	1	970	Test	2	3	1	454	A1	Zahlen	127	1
11	1	741	Test	1	4	1	564	A2	Buchstaben	128	2
11	1	465	Test	1	1	1	511	A1	Zahlen	129	2
11	1	623	Test	2	2	1	526	A2	Buchstaben	130	2
11	1	905	Test	2	3	1	512	A2	Buchstaben	131	1
11	2	664	Test	2	3	1	526	A1	Zahlen	132	2
11	1	1454	Test	2	3	1	484	A1	Zahlen	133	1
11	1	972	Test	2	3	1	432	A2	Buchstaben	134	2
11	1	754	Test	2	3	1	444	A2	Buchstaben	135	1
11	1	492	Test	2	3	1	462	A2	Buchstaben	136	1
11	1	928	Test	1	4	1	555	A2	Buchstaben	137	1
11	2	447	Test	2	2	1	746	A1	Zahlen	138	2
11	1	752	Test	1	4	1	529	A2	Buchstaben	139	2
11	1	657	Test	1	1	1	455	A2	Buchstaben	140	1
11	1	546	Test	1	1	1	487	A2	Buchstaben	141	1
11	1	821	Test	2	2	1	475	A1	Zahlen	142	2
11	2	801	Test	2	3	1	514	A1	Zahlen	143	1
11	1	1067	Test	1	4	1	409	A2	Buchstaben	144	2
11	1	437	Test	2	2	1	493	A2	Buchstaben	145	1
11	1	472	Test	2	3	1	528	A1	Zahlen	146	2
11	1	638	Test	2	3	1	454	A2	Buchstaben	147	2
11	2	711	Test	2	3	1	543	A1	Zahlen	148	2
11	1	410	Test	1	4	1	493	A1	Zahlen	149	1
11	1	808	Test	1	1	1	387	A2	Buchstaben	150	2
11	1	571	Test	1	1	1	453	A1	Zahlen	151	2
11	1	576	Test	2	2	1	539	A1	Zahlen	152	1
11	2	1121	Test	2	3	1	482	A2	Buchstaben	153	2
11	1	481	Test	1	4	1	497	A2	Buchstaben	154	1
11	1	1024	Test	1	1	1	502	A1	Zahlen	155	2
11	1	576	Test	1	1	1	455	A1	Zahlen	156	1
11	1	1246	Test	2	2	1	500	A2	Buchstaben	157	2
11	2	507	Test	2	3	1	621	A2	Buchstaben	158	1
11	1	703	Test	1	4	1	646	A2	Buchstaben	159	1
11	1	518	Test	1	1	1	463	A2	Buchstaben	160	1
11	1	635	Test	1	1	1	397	A2	Buchstaben	161	1
11	1	663	Test	2	2	1	717	A2	Buchstaben	162	1
11	1	387	Test	2	3	1	489	A1	Zahlen	163	2
11	2	878	Test	2	3	1	472	A1	Zahlen	164	1
11	1	411	Test	1	4	1	558	A1	Zahlen	165	1
11	1	472	Test	1	1	1	489	A1	Zahlen	166	1
11	1	1211	Test	1	1	1	575	A2	Buchstaben	167	2
11	1	564	Test	1	1	1	526	A2	Buchstaben	168	1
11	1	641	Test	1	1	1	447	A2	Buchstaben	169	1
11	2	648	Test	2	2	1	643	A1	Zahlen	170	2
11	1	569	Test	2	3	1	452	A2	Buchstaben	171	2
11	1	505	Test	1	4	1	615	A1	Zahlen	172	2
11	1	591	Test	1	1	1	471	A2	Buchstaben	173	2
11	1	714	Test	1	1	1	500	A1	Zahlen	174	2
11	1	579	Test	1	1	1	424	A2	Buchstaben	175	2
11	2	589	Test	2	2	1	483	A1	Zahlen	176	2
11	1	814	Test	1	4	1	594	A2	Buchstaben	177	2
11	1	467	Test	2	2	1	472	A2	Buchstaben	178	1
11	1	468	Test	2	3	1	529	A2	Buchstaben	179	1
11	1	479	Test	1	4	1	591	A1	Zahlen	180	2
11	1	669	Test	2	2	1	514	A2	Buchstaben	181	2
11	2	1268	Test	2	3	1	538	A2	Buchstaben	182	1
11	1	366	Test	2	3	1	625	A2	Buchstaben	183	1
11	1	1217	Test	2	3	1	464	A1	Zahlen	184	2
11	1	534	Test	2	3	1	513	A2	Buchstaben	185	2
11	2	1000	Test	2	3	1	561	A1	Zahlen	186	2
11	1	736	Test	1	4	1	451	A2	Buchstaben	187	2
11	1	545	Test	1	1	1	638	A2	Buchstaben	188	1
11	1	1705	Test	1	1	1	490	A2	Buchstaben	189	1
11	1	2019	Test	2	2	1	581	A2	Buchstaben	190	1
11	1	467	Test	1	4	1	929	A1	Zahlen	191	2
11	1	417	Test	1	1	1	647	A1	Zahlen	192	1
11	2	515	Test	2	2	1	556	A1	Zahlen	193	1
11	1	441	Test	1	4	1	482	A1	Zahlen	194	1
11	1	444	Test	2	2	1	495	A1	Zahlen	195	1
11	1	666	Test	1	4	1	416	A1	Zahlen	196	1
11	1	705	Test	2	2	1	456	A2	Buchstaben	197	2
11	1	1205	Test	2	3	1	394	A1	Zahlen	198	2
11	2	565	Test	2	3	1	607	A1	Zahlen	199	1
11	1	391	Test	1	4	0	487	A1	Zahlen	200	1
11	1	423	Test	2	2	1	524	A1	Zahlen	201	1
11	1	511	Test	1	4	1	663	A2	Buchstaben	202	2
11	2	695	Test	2	2	1	610	A1	Zahlen	203	2
11	1	455	Test	1	4	1	569	A2	Buchstaben	204	2
11	1	386	Test	2	2	1	543	A2	Buchstaben	205	1
11	1	410	Test	2	3	1	540	A2	Buchstaben	206	1
11	1	691	Test	2	3	1	518	A2	Buchstaben	207	1
11	1	790	Test	2	3	1	631	A2	Buchstaben	208	1
11	2	691	Test	2	3	1	566	A1	Zahlen	209	2
11	1	695	Test	1	4	1	610	A1	Zahlen	210	1
11	1	379	Test	1	1	1	616	A1	Zahlen	211	1
11	1	770	Test	2	2	1	485	A2	Buchstaben	212	2
11	2	1292	Test	2	3	1	496	A2	Buchstaben	213	1
11	1	625	Test	1	4	1	414	A2	Buchstaben	214	1
11	1	913	Test	2	2	1	610	A1	Zahlen	215	2
11	1	481	Test	2	3	1	432	A1	Zahlen	216	1
11	2	430	Test	2	3	1	523	A1	Zahlen	217	1
11	1	411	Test	1	4	1	422	A1	Zahlen	218	1
11	1	355	Test	1	1	1	643	A1	Zahlen	219	1
11	1	427	Test	1	1	1	753	A1	Zahlen	220	1
11	1	540	Test	2	2	1	522	A1	Zahlen	221	1
11	2	649	Test	2	3	1	532	A1	Zahlen	222	1
11	1	513	Test	1	4	1	618	A1	Zahlen	223	1
11	1	396	Test	1	1	1	421	A1	Zahlen	224	1
11	1	641	Test	1	1	1	658	A1	Zahlen	225	1
11	1	889	Test	1	1	1	470	A1	Zahlen	226	1
11	1	907	Test	1	1	1	442	A2	Buchstaben	227	2
11	1	593	Test	1	1	1	529	A1	Zahlen	228	2
11	2	440	Test	2	2	1	512	A1	Zahlen	229	1
11	1	1000	Test	1	4	1	497	A2	Buchstaben	230	2
11	1	368	Test	1	1	1	498	A1	Zahlen	231	2
11	1	495	Test	2	2	1	506	A2	Buchstaben	232	2
11	1	370	Test	1	4	1	517	A1	Zahlen	233	2
11	1	427	Test	1	1	1	473	A2	Buchstaben	234	2
11	1	436	Test	1	1	1	555	A2	Buchstaben	235	1
11	2	570	Test	2	2	1	596	A1	Zahlen	236	2
11	1	511	Test	2	3	1	439	A2	Buchstaben	237	2
11	1	414	Test	2	3	1	528	A1	Zahlen	238	2
11	1	430	Test	2	3	1	539	A1	Zahlen	239	1
11	1	959	Test	2	3	1	528	A2	Buchstaben	240	2
11	2	1502	Test	2	3	1	742	A1	Zahlen	241	2
11	1	413	Test	2	3	1	519	A1	Zahlen	242	1
11	1	531	Test	2	3	1	598	A2	Buchstaben	243	2
11	1	494	Test	2	3	1	417	A2	Buchstaben	244	1
11	1	419	Test	2	3	1	448	A1	Zahlen	245	2
11	1	462	Test	1	4	1	491	A2	Buchstaben	246	2
11	2	455	Test	2	2	1	433	A1	Zahlen	247	2
11	1	441	Test	2	3	1	465	A1	Zahlen	248	1
11	1	455	Test	2	3	1	553	A2	Buchstaben	249	2
11	1	1639	Test	2	3	1	458	A2	Buchstaben	250	1
11	1	603	Test	1	4	1	419	A1	Zahlen	251	2
11	2	395	Test	2	2	1	556	A1	Zahlen	252	1
11	1	447	Test	2	3	1	594	A1	Zahlen	253	1
11	1	432	Test	2	3	1	457	A1	Zahlen	254	1
11	1	648	Test	1	4	1	532	A1	Zahlen	255	1
11	1	918	Test	1	1	1	472	A2	Buchstaben	256	2
11	1	458	Test	1	1	1	496	A2	Buchstaben	257	1
11	2	471	Test	2	2	1	552	A1	Zahlen	258	2
11	1	496	Test	2	3	1	491	A1	Zahlen	259	1
11	1	467	Test	2	3	1	513	A1	Zahlen	260	1
11	1	1241	Test	1	4	1	379	A2	Buchstaben	261	2
11	1	387	Test	2	2	1	544	A1	Zahlen	262	2
11	1	425	Test	2	3	1	510	A1	Zahlen	263	1
11	2	479	Test	2	3	1	702	A1	Zahlen	264	1
11	1	379	Test	1	4	1	360	A1	Zahlen	265	1
11	1	456	Test	2	2	1	515	A1	Zahlen	266	1
11	1	812	Test	1	4	1	424	A2	Buchstaben	267	2
11	1	557	Test	1	1	1	461	A1	Zahlen	268	2
11	1	363	Test	1	1	1	611	A1	Zahlen	269	1
11	1	375	Test	1	1	1	401	A1	Zahlen	270	1
11	2	388	Test	2	2	1	561	A1	Zahlen	271	1
11	1	506	Test	2	3	1	535	A2	Buchstaben	272	2
11	1	415	Test	2	3	1	490	A1	Zahlen	273	2
11	1	675	Test	2	3	1	539	A2	Buchstaben	274	2
11	1	401	Test	2	3	1	408	A1	Zahlen	275	2
11	1	315	Test	1	4	1	475	A1	Zahlen	276	1
11	2	416	Test	2	2	1	602	A1	Zahlen	277	1
11	1	1315	Test	2	3	1	445	A1	Zahlen	278	1
11	1	456	Test	2	3	1	506	A1	Zahlen	279	1
11	1	774	Test	2	3	1	433	A1	Zahlen	280	1
11	1	560	Test	2	3	1	488	A2	Buchstaben	281	2
11	1	1089	Test	2	3	1	388	A1	Zahlen	282	2
11	2	928	Test	2	3	1	539	A1	Zahlen	283	1
11	1	553	Test	1	4	1	465	A1	Zahlen	284	1
11	1	523	Test	2	2	1	471	A1	Zahlen	285	1
11	1	390	Test	2	3	1	554	A1	Zahlen	286	1
11	1	411	Test	2	3	1	487	A1	Zahlen	287	1
11	2	536	Test	2	3	1	463	A1	Zahlen	288	1
11	1	2281	Test	1	4	1	529	A1	Zahlen	289	1
11	1	752	Test	1	1	1	473	A2	Buchstaben	290	2
11	1	475	Test	2	2	1	620	A1	Zahlen	291	2
11	1	423	Test	2	3	1	453	A2	Buchstaben	292	2
11	2	1183	Test	2	3	1	550	A2	Buchstaben	293	1
11	1	478	Test	2	3	1	478	A2	Buchstaben	294	1
11	1	1015	Test	2	3	1	386	A2	Buchstaben	295	1
11	1	512	Test	1	4	1	496	A1	Zahlen	296	2
11	1	801	Test	2	2	1	489	A2	Buchstaben	297	2
11	1	815	Test	2	3	1	442	A2	Buchstaben	298	1
11	1	1259	Test	1	4	1	482	A2	Buchstaben	299	1
11	2	515	Test	2	2	1	482	A1	Zahlen	300	2
11	1	503	Test	2	3	1	764	A2	Buchstaben	301	2
11	1	493	Test	2	3	1	495	A2	Buchstaben	302	1
11	1	417	Test	2	3	1	691	A1	Zahlen	303	2
11	1	415	Test	1	4	1	481	A1	Zahlen	304	1
11	1	491	Test	1	1	1	414	A1	Zahlen	305	1
11	2	476	Test	2	2	1	579	A1	Zahlen	306	1
11	1	512	Test	2	3	1	544	A2	Buchstaben	307	2
11	1	497	Test	2	3	1	498	A1	Zahlen	308	2
11	1	440	Test	2	3	1	560	A2	Buchstaben	309	2
11	1	672	Test	1	4	1	441	A1	Zahlen	310	2
11	2	722	Test	2	2	1	634	A1	Zahlen	311	1
11	1	443	Test	2	3	1	563	A1	Zahlen	312	1
11	1	412	Test	2	3	1	414	A1	Zahlen	313	1
11	1	599	Test	2	3	1	447	A2	Buchstaben	314	2
11	2	407	Test	2	3	1	401	A1	Zahlen	315	2
11	1	505	Test	2	3	1	487	A1	Zahlen	316	1
11	1	439	Test	2	3	1	559	A1	Zahlen	317	1
11	1	404	Test	1	4	1	535	A1	Zahlen	318	1
11	2	889	Test	2	2	1	502	A1	Zahlen	319	1
11	1	864	Test	2	3	1	423	A2	Buchstaben	320	2
11	1	441	Test	2	3	1	522	A1	Zahlen	321	2
11	1	829	Test	2	3	1	373	A1	Zahlen	322	1
11	1	482	Test	2	3	1	434	A1	Zahlen	323	1
11	2	426	Test	2	3	1	560	A1	Zahlen	324	1
11	1	960	Test	2	3	1	506	A2	Buchstaben	325	2
11	1	697	Test	1	4	1	487	A1	Zahlen	326	2
11	1	562	Test	1	1	1	554	A2	Buchstaben	327	2
11	1	1825	Test	1	1	1	465	A2	Buchstaben	328	1
11	1	460	Test	2	2	1	697	A1	Zahlen	329	2
11	2	440	Test	2	3	1	496	A1	Zahlen	330	1
11	1	563	Test	1	4	1	566	A1	Zahlen	331	1
11	1	522	Test	1	1	1	466	A2	Buchstaben	332	2
11	1	418	Test	2	2	1	391	A1	Zahlen	333	2
11	1	653	Test	2	3	1	488	A2	Buchstaben	334	2
11	2	1065	Test	2	3	1	399	A1	Zahlen	335	2
11	1	472	Test	1	4	1	504	A1	Zahlen	336	1
11	1	718	Test	2	2	1	454	A2	Buchstaben	337	2
11	1	455	Test	1	4	1	578	A1	Zahlen	338	2
11	2	442	Test	2	2	1	474	A1	Zahlen	339	1
11	1	467	Test	1	4	1	456	A1	Zahlen	340	1
11	1	819	Test	1	1	1	377	A2	Buchstaben	341	2
11	1	1202	Test	2	2	1	395	A2	Buchstaben	342	1
11	1	529	Test	1	4	1	468	A2	Buchstaben	343	1
11	1	484	Test	2	2	1	711	A1	Zahlen	344	2
11	2	491	Test	2	3	1	437	A1	Zahlen	345	1
11	1	1361	Test	1	4	0	394	A2	Buchstaben	346	2
11	1	727	Test	1	1	1	443	A2	Buchstaben	347	1
11	1	448	Test	2	2	1	588	A1	Zahlen	348	2
11	1	955	Test	1	4	1	517	A2	Buchstaben	349	2
11	1	399	Test	1	1	1	576	A1	Zahlen	350	2
11	2	377	Test	2	2	0	612	A1	Zahlen	351	1
11	1	590	Test	2	3	1	543	A2	Buchstaben	352	2
12			Practice			1	374	A1			2
12			Practice			1	404	A1			1
12			Practice			1	424	A1			1
12			Practice			1	432	A1			1
12			Practice			1	409	A1			1
12			Practice			1	480	A1			1
12			Practice			1	478	A1			1
12			Practice			1	473	A1			1
12			Practice			1	440	A1			1
12			Practice			1	499	A1			1
12			Practice			1	484	A1			1
12			Practice			1	400	A1			1
12			Practice			1	395	A1			1
12			Practice			0	609	A1			1
12			Practice			1	498	A1			1
12			Practice			1	568	A1			1
12			Practice			1	465	A2			2
12			Practice			1	578	A2			1
12			Practice			0	485	A2			1
12			Practice			1	498	A2			1
12			Practice			1	480	A2			1
12			Practice			1	392	A2			1
12			Practice			1	463	A2			1
12			Practice			1	508	A2			1
12			Practice			1	533	A2			1
12			Practice			1	441	A2			1
12			Practice			1	508	A2			1
12			Practice			1	571	A2			1
12			Practice			1	519	A2			1
12			Practice			1	440	A2			1
12			Practice			1	523	A2			1
12			Practice			1	492	A2			1
12		1984	Practice			1	1196	A2			1
12		1076	Practice			1	518	A2			1
12		985	Practice			1	825	A1			2
12		735	Practice			1	252	A1			1
12		710	Practice			1	557	A1			1
12		637	Practice			1	609	A2			2
12		498	Practice			1	502	A1			2
12		598	Practice			1	543	A2			2
12		729	Practice			1	464	A2			1
12		473	Practice			1	652	A2			1
12		512	Practice			1	551	A1			2
12		546	Practice			1	503	A1			1
12		510	Practice			1	533	A2			2
12		733	Practice			1	721	A1			2
12		441	Practice			1	539	A2			2
12		457	Practice			1	662	A1			2
12		455	Practice			1	538	A2			2
12		410	Practice			1	560	A2			1
12		538	Practice			1	622	A1			2
12		467	Practice			1	697	A1			1
12		551	Practice			1	548	A1			1
12		418	Practice			1	597	A2			2
12		447	Practice			1	554	A2			1
12		399	Practice			1	544	A1			2
12		658	Practice			1	485	A1			1
12		475	Practice			1	420	A1			1
12		533	Practice			1	480	A1			1
12		560	Practice			1	536	A1			1
12		368	Practice			1	435	A2			2
12		559	Practice			1	624	A2			1
12		506	Practice			1	434	A2			1
12		480	Practice			1	552	A2			1
12	1	838	Baseline			0	705	A1	Zahlen	1	2
12	1	496	Baseline			1	500	A2	Buchstaben	2	2
12	1	525	Baseline			1	399	A1	Zahlen	3	2
12	1	362	Baseline			1	452	A2	Buchstaben	4	2
12	1	434	Baseline			1	466	A2	Buchstaben	5	1
12	1	407	Baseline			1	472	A2	Buchstaben	6	1
12	2	375	Baseline			1	920	A2	Buchstaben	7	1
12	1	416	Baseline			1	537	A1	Zahlen	8	2
12	1	494	Baseline			1	497	A2	Buchstaben	9	2
12	1	374	Baseline			1	609	A2	Buchstaben	10	1
12	1	627	Baseline			1	547	A1	Zahlen	11	2
12	1	382	Baseline			1	499	A2	Buchstaben	12	2
12	2	423	Baseline			1	597	A2	Buchstaben	13	1
12	1	417	Baseline			1	406	A2	Buchstaben	14	1
12	1	367	Baseline			1	458	A2	Buchstaben	15	1
12	1	417	Baseline			1	535	A1	Zahlen	16	2
12	1	455	Baseline			1	522	A1	Zahlen	17	1
12	1	480	Baseline			1	509	A1	Zahlen	18	1
12	1	422	Baseline			1	526	A1	Zahlen	19	1
12	2	593	Baseline			1	539	A2	Buchstaben	20	2
12	1	370	Baseline			1	479	A2	Buchstaben	21	1
12	1	529	Baseline			1	508	A1	Zahlen	22	2
12	1	374	Baseline			1	441	A2	Buchstaben	23	2
12	1	316	Baseline			1	550	A2	Buchstaben	24	1
12	2	728	Baseline			1	474	A1	Zahlen	25	2
12	1	342	Baseline			1	516	A1	Zahlen	26	1
12	1	393	Baseline			1	459	A2	Buchstaben	27	2
12	1	370	Baseline			0	389	A2	Buchstaben	28	1
12	1	358	Baseline			1	487	A1	Zahlen	29	2
12	1	367	Baseline			1	563	A2	Buchstaben	30	2
12	2	382	Baseline			1	483	A2	Buchstaben	31	1
12	1	406	Baseline			1	536	A1	Zahlen	32	2
12	1	366	Baseline			1	473	A2	Buchstaben	33	2
12	1	379	Baseline			1	552	A2	Buchstaben	34	1
12	1	574	Baseline			1	497	A1	Zahlen	35	2
12	2	398	Baseline			1	486	A2	Buchstaben	36	2
12	1	823	Baseline			1	592	A1	Zahlen	37	2
12	1	385	Baseline			1	623	A1	Zahlen	38	1
12	1	383	Baseline			1	464	A2	Buchstaben	39	2
12	1	369	Baseline			1	508	A1	Zahlen	40	2
12	2	480	Baseline			1	530	A2	Buchstaben	41	2
12	1	348	Baseline			1	459	A2	Buchstaben	42	1
12	1	352	Baseline			1	539	A2	Buchstaben	43	1
12	1	393	Baseline			1	500	A2	Buchstaben	44	1
12	2	447	Baseline			0	260	A2	Buchstaben	45	1
12	1	481	Baseline			1	619	A1	Zahlen	46	2
12	1	392	Baseline			1	384	A1	Zahlen	47	1
12	1	387	Baseline			1	481	A1	Zahlen	48	1
12	1	360	Baseline			1	425	A2	Buchstaben	49	2
12	1	337	Baseline			1	543	A2	Buchstaben	50	1
12	2	367	Baseline			1	502	A2	Buchstaben	51	1
12	1	395	Baseline			1	530	A1	Zahlen	52	2
12	1	377	Baseline			1	474	A1	Zahlen	53	1
12	1	411	Baseline			1	534	A2	Buchstaben	54	2
12	1	419	Baseline			1	1244	A2	Buchstaben	55	1
12	1	357	Baseline			1	522	A1	Zahlen	56	2
12	1	459	Baseline			1	464	A2	Buchstaben	57	2
12	2	452	Baseline			1	526	A2	Buchstaben	58	1
12	1	399	Baseline			1	487	A2	Buchstaben	59	1
12	1	290	Baseline			1	532	A2	Buchstaben	60	1
12	1	379	Baseline			1	480	A1	Zahlen	61	2
12	1	373	Baseline			1	528	A1	Zahlen	62	1
12	1	373	Baseline			1	488	A1	Zahlen	63	1
12	2	422	Baseline			1	540	A2	Buchstaben	64	2
12	1	340	Baseline			1	497	A1	Zahlen	65	2
12	1	314	Baseline			1	522	A2	Buchstaben	66	2
12	1	426	Baseline			1	520	A1	Zahlen	67	2
12	1	309	Baseline			1	499	A2	Buchstaben	68	2
12	1	366	Baseline			1	657	A2	Buchstaben	69	1
12	2	448	Baseline			1	508	A2	Buchstaben	70	1
12	1	305	Baseline			1	463	A2	Buchstaben	71	1
12	1	444	Baseline			1	471	A2	Buchstaben	72	1
12	1	360	Baseline			1	608	A2	Buchstaben	73	1
12	1	576	Baseline			1	548	A1	Zahlen	74	2
12	1	401	Baseline			1	546	A1	Zahlen	75	1
12	2	434	Baseline			1	483	A2	Buchstaben	76	2
12	1	536	Baseline			1	499	A2	Buchstaben	77	1
12	1	361	Baseline			1	536	A1	Zahlen	78	2
12	1	308	Baseline			0	345	A2	Buchstaben	79	2
12	1	393	Baseline			1	552	A2	Buchstaben	80	1
12	2	487	Baseline			1	490	A2	Buchstaben	81	1
12	1	384	Baseline			1	405	A2	Buchstaben	82	1
12	1	312	Baseline			1	639	A2	Buchstaben	83	1
12	1	385	Baseline			1	797	A2	Buchstaben	84	1
12	1	345	Baseline			1	366	A2	Buchstaben	85	1
12	2	393	Baseline			1	585	A1	Zahlen	86	2
12	1	335	Baseline			1	553	A2	Buchstaben	87	2
12	1	416	Baseline			1	458	A1	Zahlen	88	2
12	1	379	Baseline			1	440	A1	Zahlen	89	1
12	1	334	Baseline			1	360	A2	Buchstaben	90	2
12	2	480	Baseline			1	513	A2	Buchstaben	91	1
12	1	355	Baseline			1	436	A1	Zahlen	92	2
12	1	313	Baseline			0	368	A2	Buchstaben	93	2
12	1	361	Baseline			1	456	A1	Zahlen	94	2
12	1	291	Baseline			1	421	A2	Buchstaben	95	2
12	1	372	Baseline			1	550	A1	Zahlen	96	2
12	1	366	Baseline			1	491	A1	Zahlen	97	1
12	2	407	Baseline			1	362	A2	Buchstaben	98	2
12	1	434	Baseline			1	498	A1	Zahlen	99	2
12	1	528	Baseline			1	516	A1	Zahlen	100	1
12	1	321	Baseline			1	321	A2	Buchstaben	101	2
12	1	380	Baseline			1	507	A1	Zahlen	102	2
12	2	410	Baseline			1	778	A2	Buchstaben	103	2
12	1	336	Baseline			1	630	A1	Zahlen	104	2
12	1	377	Baseline			1	444	A1	Zahlen	105	1
12	1	324	Baseline			1	451	A2	Buchstaben	106	2
12	1	315	Baseline			1	507	A2	Buchstaben	107	1
12	1	321	Baseline			1	497	A2	Buchstaben	108	1
12	2	414	Baseline			1	475	A2	Buchstaben	109	1
12	1	305	Baseline			1	454	A2	Buchstaben	110	1
12	1	406	Baseline			1	570	A2	Buchstaben	111	1
12	1	422	Baseline			1	453	A1	Zahlen	112	2
12	1	297	Baseline			1	511	A2	Buchstaben	113	2
12	2	431	Baseline			1	536	A2	Buchstaben	114	1
12	1	381	Baseline			0	324	A2	Buchstaben	115	1
12	1	354	Baseline			1	445	A1	Zahlen	116	2
12	1	370	Baseline			1	557	A1	Zahlen	117	1
12	1	343	Baseline			1	446	A1	Zahlen	118	1
12	2	402	Baseline			1	531	A2	Buchstaben	119	2
12	1	364	Baseline			1	495	A2	Buchstaben	120	1
12	1	336	Baseline			1	489	A2	Buchstaben	121	1
12	1	723	Baseline			1	502	A1	Zahlen	122	2
12	2	360	Baseline			1	433	A2	Buchstaben	123	2
12	1	386	Baseline			1	567	A1	Zahlen	124	2
12	1	392	Baseline			1	496	A1	Zahlen	125	1
12	1	462	Baseline			1	419	A2	Buchstaben	126	2
12	1	324	Baseline			1	451	A1	Zahlen	127	2
12	2	433	Baseline			1	433	A2	Buchstaben	128	2
12	1	420	Baseline			1	681	A1	Zahlen	129	2
12	1	370	Baseline			1	548	A2	Buchstaben	130	2
12	1	328	Baseline			1	499	A1	Zahlen	131	2
12	1	393	Baseline			1	458	A2	Buchstaben	132	2
12	1	351	Baseline			1	759	A1	Zahlen	133	2
12	2	378	Baseline			1	480	A2	Buchstaben	134	2
12	1	336	Baseline			1	435	A1	Zahlen	135	2
12	1	378	Baseline			1	680	A2	Buchstaben	136	2
12	1	345	Baseline			1	487	A1	Zahlen	137	2
12	1	411	Baseline			1	518	A1	Zahlen	138	1
12	1	379	Baseline			1	409	A1	Zahlen	139	1
12	2	407	Baseline			1	437	A2	Buchstaben	140	2
12	1	480	Baseline			1	456	A1	Zahlen	141	2
12	1	363	Baseline			1	531	A1	Zahlen	142	1
12	1	384	Baseline			1	358	A1	Zahlen	143	1
12	1	422	Baseline			1	388	A1	Zahlen	144	1
12	1	478	Baseline			1	414	A2	Buchstaben	145	2
12	1	321	Baseline			1	537	A2	Buchstaben	146	1
12	2	738	Baseline			1	570	A2	Buchstaben	147	1
12	1	512	Baseline			1	408	A1	Zahlen	148	2
12	1	345	Baseline			1	478	A1	Zahlen	149	1
12	1	356	Baseline			1	588	A1	Zahlen	150	1
12	1	448	Baseline			1	418	A2	Buchstaben	151	2
12	1	770	Baseline			1	533	A2	Buchstaben	152	1
12	2	518	Baseline			1	494	A2	Buchstaben	153	1
12	1	415	Baseline			1	594	A2	Buchstaben	154	1
12	1	363	Baseline			1	444	A1	Zahlen	155	2
12	1	419	Baseline			1	456	A1	Zahlen	156	1
12	1	369	Baseline			1	483	A1	Zahlen	157	1
12	1	359	Baseline			1	454	A1	Zahlen	158	1
12	2	335	Baseline			1	513	A2	Buchstaben	159	2
12	1	327	Baseline			0	417	A2	Buchstaben	160	1
12	1	388	Baseline			1	705	A2	Buchstaben	161	1
12	1	416	Baseline			1	370	A1	Zahlen	162	2
12	1	312	Baseline			1	471	A2	Buchstaben	163	2
12	1	343	Baseline			0	356	A1	Zahlen	164	2
12	2	340	Baseline			1	473	A2	Buchstaben	165	2
12	1	391	Baseline			1	471	A1	Zahlen	166	2
12	1	337	Baseline			1	527	A2	Buchstaben	167	2
12	1	381	Baseline			1	475	A2	Buchstaben	168	1
12	2	424	Baseline			1	430	A2	Buchstaben	169	1
12	1	273	Baseline			1	432	A2	Buchstaben	170	1
12	1	363	Baseline			1	391	A2	Buchstaben	171	1
12	1	377	Baseline			1	476	A1	Zahlen	172	2
12	1	691	Baseline			1	520	A2	Buchstaben	173	2
12	1	380	Baseline			1	369	A1	Zahlen	174	2
12											2
12	1	973	Test	2	0	1	490	A2	Buchstaben	1	2
12	1	601	Test	2	3	1	1115	A1	Zahlen	2	2
12	1	480	Test	1	4	1	328	A1	Zahlen	3	1
12	2	408	Test	2	2	1	443	A2	Buchstaben	4	2
12	1	382	Test	1	4	0	284	A2	Buchstaben	5	1
12	1	379	Test	1	1	0	375	A2	Buchstaben	6	1
12	1	339	Test	1	1	0	368	A2	Buchstaben	7	1
12	2	547	Test	2	2	1	352	A1	Zahlen	8	2
12	1	355	Test	1	4	0	355	A1	Zahlen	9	1
12	1	390	Test	2	2	1	404	A2	Buchstaben	10	2
12	1	658	Test	2	3	1	383	A1	Zahlen	11	2
12	2	466	Test	2	3	1	544	A2	Buchstaben	12	2
12	1	408	Test	1	4	1	348	A1	Zahlen	13	2
12	1	344	Test	1	1	1	512	A2	Buchstaben	14	2
12	1	787	Test	2	2	0	434	A1	Zahlen	15	2
12	2	433	Test	2	3	1	393	A2	Buchstaben	16	2
12	1	464	Test	1	4	1	541	A1	Zahlen	17	2
12	1	485	Test	1	1	1	500	A1	Zahlen	18	1
12	1	376	Test	1	1	1	453	A1	Zahlen	19	1
12	1	485	Test	2	2	1	488	A2	Buchstaben	20	2
12	1	320	Test	1	4	1	424	A2	Buchstaben	21	1
12	2	448	Test	2	2	1	431	A2	Buchstaben	22	1
12	1	600	Test	2	3	1	345	A1	Zahlen	23	2
12	1	441	Test	1	4	1	488	A1	Zahlen	24	1
12	1	385	Test	2	2	1	531	A2	Buchstaben	25	2
12	1	352	Test	2	3	1	520	A1	Zahlen	26	2
12	2	610	Test	2	3	1	342	A1	Zahlen	27	1
12	1	478	Test	1	4	1	494	A2	Buchstaben	28	2
12	1	505	Test	1	1	1	463	A2	Buchstaben	29	1
12	1	377	Test	2	2	0	339	A1	Zahlen	30	2
12	1	395	Test	1	4	1	500	A2	Buchstaben	31	2
12	2	836	Test	2	2	0	334	A2	Buchstaben	32	1
12	1	394	Test	1	4	1	331	A1	Zahlen	33	2
12	1	642	Test	2	2	1	535	A2	Buchstaben	34	2
12	1	323	Test	2	3	1	434	A2	Buchstaben	35	1
12	1	451	Test	2	3	0	294	A2	Buchstaben	36	1
12	1	363	Test	2	3	1	316	A2	Buchstaben	37	1
12	2	709	Test	2	3	0	357	A2	Buchstaben	38	1
12	1	398	Test	1	4	1	534	A1	Zahlen	39	2
12	1	553	Test	1	1	1	522	A1	Zahlen	40	1
12	1	452	Test	1	1	0	611	A2	Buchstaben	41	2
12	1	381	Test	1	1	0	378	A2	Buchstaben	42	1
12	2	417	Test	2	2	1	351	A2	Buchstaben	43	1
12	1	375	Test	2	3	1	409	A1	Zahlen	44	2
12	1	338	Test	2	3	1	408	A2	Buchstaben	45	2
12	1	399	Test	1	4	1	367	A2	Buchstaben	46	1
12	1	386	Test	1	1	1	311	A1	Zahlen	47	2
12	2	609	Test	2	2	1	388	A2	Buchstaben	48	2
12	1	476	Test	2	3	1	325	A1	Zahlen	49	2
12	1	503	Test	2	3	1	407	A2	Buchstaben	50	2
12	1	340	Test	1	4	1	449	A2	Buchstaben	51	1
12	1	431	Test	2	2	0	349	A1	Zahlen	52	2
12	1	420	Test	2	3	1	393	A1	Zahlen	53	1
12	2	750	Test	2	3	1	328	A2	Buchstaben	54	2
12	1	527	Test	2	3	1	438	A1	Zahlen	55	2
12	1	840	Test	2	3	1	450	A1	Zahlen	56	1
12	1	388	Test	2	3	1	448	A2	Buchstaben	57	2
12	2	477	Test	2	3	1	454	A2	Buchstaben	58	1
12	1	368	Test	1	4	1	389	A1	Zahlen	59	2
12	1	342	Test	1	1	1	532	A1	Zahlen	60	1
12	1	450	Test	2	2	1	360	A2	Buchstaben	61	2
12	1	567	Test	2	3	1	525	A1	Zahlen	62	2
12	1	347	Test	2	3	1	329	A1	Zahlen	63	1
12	2	587	Test	2	3	0	273	A2	Buchstaben	64	2
12	1	327	Test	1	4	1	419	A2	Buchstaben	65	1
12	1	391	Test	1	1	0	367	A2	Buchstaben	66	1
12	1	713	Test	2	2	1	451	A2	Buchstaben	67	1
12	1	463	Test	1	4	0	318	A2	Buchstaben	68	1
12	1	342	Test	2	2	1	388	A2	Buchstaben	69	1
12	2	486	Test	2	3	1	497	A2	Buchstaben	70	1
12	1	369	Test	1	4	1	332	A2	Buchstaben	71	1
12	1	550	Test	1	1	1	444	A1	Zahlen	72	2
12	1	535	Test	1	1	1	449	A2	Buchstaben	73	2
12	1	383	Test	1	1	1	498	A2	Buchstaben	74	1
12	1	434	Test	1	1	1	450	A1	Zahlen	75	2
12	2	610	Test	2	2	1	471	A1	Zahlen	76	1
12	1	411	Test	2	3	1	374	A2	Buchstaben	77	2
12	1	424	Test	2	3	0	397	A2	Buchstaben	78	1
12	1	418	Test	1	4	1	489	A1	Zahlen	79	2
12	1	424	Test	2	2	1	547	A2	Buchstaben	80	2
12	2	451	Test	2	3	1	542	A2	Buchstaben	81	1
12	1	360	Test	1	4	1	384	A2	Buchstaben	82	1
12	1	368	Test	1	1	1	434	A2	Buchstaben	83	1
12	1	498	Test	1	1	1	488	A1	Zahlen	84	2
12	1	406	Test	1	1	0	362	A2	Buchstaben	85	2
12	2	995	Test	2	2	1	460	A2	Buchstaben	86	1
12	1	823	Test	1	4	1	430	A2	Buchstaben	87	1
12	1	929	Test	1	1	1	413	A1	Zahlen	88	2
12	1	1146	Test	2	2	1	426	A1	Zahlen	89	1
12	1	1001	Test	2	3	0	275	A2	Buchstaben	90	2
12	1	1832	Test	2	3	1	373	A2	Buchstaben	91	1
12	2	585	Test	2	3	1	480	A2	Buchstaben	92	1
12	1	704	Test	1	4	1	559	A2	Buchstaben	93	1
12	1	541	Test	1	1	1	476	A2	Buchstaben	94	1
12	1	627	Test	2	2	1	475	A1	Zahlen	95	2
12	1	402	Test	1	4	1	453	A2	Buchstaben	96	2
12	1	449	Test	2	2	1	366	A1	Zahlen	97	2
12	2	521	Test	2	3	1	354	A1	Zahlen	98	1
12	1	497	Test	2	3	1	551	A2	Buchstaben	99	2
12	1	505	Test	2	3	1	463	A2	Buchstaben	100	1
12	1	375	Test	2	3	1	410	A1	Zahlen	101	2
12	1	391	Test	1	4	1	498	A2	Buchstaben	102	2
12	2	409	Test	2	2	1	424	A2	Buchstaben	103	1
12	1	812	Test	1	4	1	448	A1	Zahlen	104	2
12	1	539	Test	1	1	1	576	A1	Zahlen	105	1
12	1	473	Test	1	1	1	497	A1	Zahlen	106	1
12	1	415	Test	1	1	1	473	A2	Buchstaben	107	2
12	2	439	Test	2	2	1	466	A2	Buchstaben	108	1
12	1	434	Test	2	3	1	404	A1	Zahlen	109	2
12	1	381	Test	2	3	1	546	A1	Zahlen	110	1
12	1	472	Test	1	4	1	427	A2	Buchstaben	111	2
12	1	384	Test	1	1	1	470	A1	Zahlen	112	2
12	1	339	Test	2	2	1	305	A2	Buchstaben	113	2
12	2	472	Test	2	3	1	475	A2	Buchstaben	114	1
12	1	363	Test	1	4	1	299	A2	Buchstaben	115	1
12	1	376	Test	1	1	1	467	A1	Zahlen	116	2
12	1	400	Test	1	1	1	401	A2	Buchstaben	117	2
12	1	384	Test	2	2	1	462	A2	Buchstaben	118	1
12	1	440	Test	1	4	1	295	A2	Buchstaben	119	1
12	2	454	Test	2	2	1	417	A2	Buchstaben	120	1
12	1	433	Test	2	3	0	329	A2	Buchstaben	121	1
12	1	518	Test	2	3	1	534	A1	Zahlen	122	2
12	1	433	Test	2	3	1	561	A2	Buchstaben	123	2
12	1	452	Test	2	3	1	384	A1	Zahlen	124	2
12	2	426	Test	2	3	1	419	A2	Buchstaben	125	2
12	1	386	Test	2	3	1	456	A1	Zahlen	126	2
12	1	419	Test	2	3	0	359	A2	Buchstaben	127	2
12	1	373	Test	1	4	1	441	A1	Zahlen	128	2
12	2	459	Test	2	2	1	442	A2	Buchstaben	129	2
12	1	422	Test	2	3	1	388	A2	Buchstaben	130	1
12	1	470	Test	2	3	1	376	A2	Buchstaben	131	1
12	1	497	Test	2	3	1	345	A1	Zahlen	132	2
12	1	458	Test	1	4	1	361	A1	Zahlen	133	1
12	2	402	Test	2	2	1	412	A2	Buchstaben	134	2
12	1	399	Test	2	3	1	352	A1	Zahlen	135	2
12	1	396	Test	2	3	1	397	A2	Buchstaben	136	2
12	1	433	Test	2	3	1	522	A1	Zahlen	137	2
12	1	401	Test	2	3	1	395	A2	Buchstaben	138	2
12	1	385	Test	1	4	1	460	A2	Buchstaben	139	1
12	2	539	Test	2	2	1	423	A2	Buchstaben	140	1
12	1	514	Test	2	3	1	475	A2	Buchstaben	141	1
12	1	408	Test	2	3	1	475	A1	Zahlen	142	2
12	1	384	Test	1	4	1	390	A2	Buchstaben	143	2
12	1	370	Test	1	1	0	412	A2	Buchstaben	144	1
12	2	466	Test	2	2	1	438	A2	Buchstaben	145	1
12	1	507	Test	2	3	1	400	A1	Zahlen	146	2
12	1	419	Test	2	3	1	483	A2	Buchstaben	147	2
12	1	496	Test	2	3	1	521	A2	Buchstaben	148	1
12	1	408	Test	2	3	0	299	A1	Zahlen	149	2
12	2	681	Test	2	3	0	241	A2	Buchstaben	150	2
12	1	577	Test	2	3	1	430	A1	Zahlen	151	2
12	1	448	Test	1	4	1	466	A1	Zahlen	152	1
12	1	392	Test	1	1	1	337	A1	Zahlen	153	1
12	1	426	Test	1	1	0	312	A1	Zahlen	154	1
12	1	720	Test	2	2	1	439	A2	Buchstaben	155	2
12	1	525	Test	2	3	1	720	A2	Buchstaben	156	1
12	2	470	Test	2	3	1	365	A2	Buchstaben	157	1
12	1	471	Test	2	3	1	366	A2	Buchstaben	158	1
12	1	442	Test	2	3	1	355	A2	Buchstaben	159	1
12	1	415	Test	2	3	1	505	A1	Zahlen	160	2
12	1	398	Test	2	3	1	440	A2	Buchstaben	161	2
12	1	623	Test	2	3	1	348	A1	Zahlen	162	2
12	1	425	Test	2	3	1	424	A2	Buchstaben	163	2
12	2	478	Test	2	3	1	375	A2	Buchstaben	164	1
12	1	457	Test	1	4	1	368	A1	Zahlen	165	2
12	1	454	Test	2	2	1	386	A1	Zahlen	166	1
12	1	532	Test	2	3	1	448	A2	Buchstaben	167	2
12	1	547	Test	2	3	1	380	A1	Zahlen	168	2
12	2	526	Test	2	3	0	363	A2	Buchstaben	169	2
12	1	457	Test	1	4	1	491	A2	Buchstaben	170	1
12	1	446	Test	2	2	0	394	A2	Buchstaben	171	1
12	1	325	Test	1	4	1	511	A2	Buchstaben	172	1
12	1	480	Test	1	1	1	464	A2	Buchstaben	173	1
12	2	531	Test	2	2	1	399	A2	Buchstaben	174	1
12	1	489	Test	1	4	1	436	A1	Zahlen	175	2
12	1	368	Test	1	1	1	396	A2	Buchstaben	176	2
12	1	408	Test	2	2	1	540	A1	Zahlen	177	2
12	1	424	Test	2	3	1	446	A1	Zahlen	178	1
12	1	497	Test	2	3	0	388	A2	Buchstaben	179	2
12	2	448	Test	2	3	1	348	A2	Buchstaben	180	1
12	1	416	Test	2	3	1	524	A2	Buchstaben	181	1
12	1	587	Test	1	4	1	473	A1	Zahlen	182	2
12	1	622	Test	2	2	1	356	A2	Buchstaben	183	2
12	2	529	Test	2	3	1	381	A2	Buchstaben	184	1
12	1	553	Test	1	4	1	401	A2	Buchstaben	185	1
12	1	465	Test	2	2	1	470	A2	Buchstaben	186	1
12	1	610	Test	2	3	1	421	A1	Zahlen	187	2
12	1	890	Test	2	3	1	470	A1	Zahlen	188	1
12	2	563	Test	2	3	1	500	A2	Buchstaben	189	2
12	1	415	Test	1	4	1	314	A1	Zahlen	190	2
12	1	417	Test	2	2	1	349	A1	Zahlen	191	1
12	1	480	Test	2	3	1	361	A1	Zahlen	192	1
12	1	491	Test	2	3	1	358	A2	Buchstaben	193	2
12	1	912	Test	2	3	1	417	A1	Zahlen	194	2
12	2	646	Test	2	3	1	371	A2	Buchstaben	195	2
12	1	511	Test	1	4	1	352	A1	Zahlen	196	2
12	1	434	Test	1	1	1	409	A2	Buchstaben	197	2
12	1	424	Test	1	1	1	510	A2	Buchstaben	198	1
12	1	393	Test	1	1	1	449	A2	Buchstaben	199	1
12	2	459	Test	2	2	1	490	A2	Buchstaben	200	1
12	1	400	Test	1	4	1	409	A2	Buchstaben	201	1
12	1	438	Test	1	1	1	438	A2	Buchstaben	202	1
12	1	451	Test	1	1	1	351	A1	Zahlen	203	2
12	1	402	Test	1	1	1	473	A1	Zahlen	204	1
12	1	377	Test	1	1	0	280	A1	Zahlen	205	1
12	2	657	Test	2	2	1	399	A2	Buchstaben	206	2
12	1	471	Test	1	4	1	391	A1	Zahlen	207	2
12	1	511	Test	2	2	1	464	A1	Zahlen	208	1
12	1	465	Test	2	3	1	358	A2	Buchstaben	209	2
12	1	553	Test	2	3	0	394	A1	Zahlen	210	2
12	2	595	Test	2	3	0	315	A2	Buchstaben	211	2
12	1	450	Test	1	4	1	422	A2	Buchstaben	212	1
12	1	445	Test	2	2	1	423	A2	Buchstaben	213	1
12	1	367	Test	2	3	1	414	A2	Buchstaben	214	1
12	1	427	Test	1	4	1	305	A1	Zahlen	215	2
12	2	593	Test	2	2	1	395	A2	Buchstaben	216	2
12	1	385	Test	2	3	0	383	A2	Buchstaben	217	1
12	1	305	Test	1	4	0	349	A2	Buchstaben	218	1
12	1	386	Test	1	1	1	420	A2	Buchstaben	219	1
12	1	450	Test	1	1	1	607	A2	Buchstaben	220	1
12	2	484	Test	2	2	1	472	A2	Buchstaben	221	1
12	1	512	Test	2	3	1	481	A1	Zahlen	222	2
12	1	527	Test	2	3	0	344	A1	Zahlen	223	1
12	1	728	Test	2	3	1	491	A1	Zahlen	224	1
12	1	745	Test	1	4	1	430	A2	Buchstaben	225	2
12	1	465	Test	1	1	1	430	A1	Zahlen	226	2
12	1	489	Test	1	1	1	469	A1	Zahlen	227	1
12	2	530	Test	2	2	1	364	A2	Buchstaben	228	2
12	1	461	Test	2	3	1	427	A1	Zahlen	229	2
12	1	472	Test	2	3	1	482	A1	Zahlen	230	1
12	1	504	Test	2	3	1	502	A2	Buchstaben	231	2
12	1	596	Test	2	3	1	452	A1	Zahlen	232	2
12	2	553	Test	2	3	1	434	A2	Buchstaben	233	2
12	1	399	Test	1	4	0	304	A1	Zahlen	234	2
12	1	531	Test	2	2	1	519	A2	Buchstaben	235	2
12	1	714	Test	1	4	1	621	A2	Buchstaben	236	1
12	1	384	Test	1	1	1	396	A1	Zahlen	237	2
12	1	411	Test	1	1	1	424	A1	Zahlen	238	1
12	2	536	Test	2	2	1	388	A1	Zahlen	239	1
12	1	499	Test	2	3	1	474	A1	Zahlen	240	1
12	1	371	Test	1	4	1	375	A1	Zahlen	241	1
12	1	408	Test	1	1	1	437	A2	Buchstaben	242	2
12	1	331	Test	1	1	1	478	A2	Buchstaben	243	1
12	2	494	Test	2	2	1	410	A2	Buchstaben	244	1
12	1	467	Test	2	3	0	353	A1	Zahlen	245	2
12	1	472	Test	2	3	1	528	A2	Buchstaben	246	2
12	1	438	Test	1	4	1	607	A2	Buchstaben	247	1
12	1	444	Test	1	1	0	350	A1	Zahlen	248	2
12	1	359	Test	1	1	1	480	A1	Zahlen	249	1
12	2	519	Test	2	2	1	583	A2	Buchstaben	250	2
12	1	393	Test	2	3	1	480	A2	Buchstaben	251	1
12	1	378	Test	1	4	1	472	A1	Zahlen	252	2
12	1	442	Test	1	1	1	490	A2	Buchstaben	253	2
12	2	495	Test	2	2	1	378	A2	Buchstaben	254	1
12	1	458	Test	2	3	1	482	A2	Buchstaben	255	1
12	1	389	Test	2	3	1	434	A1	Zahlen	256	2
12	1	423	Test	2	3	0	430	A2	Buchstaben	257	2
12	1	459	Test	2	3	1	288	A2	Buchstaben	258	1
12	2	553	Test	2	3	1	411	A2	Buchstaben	259	1
12	1	475	Test	1	4	1	685	A2	Buchstaben	260	1
12	1	567	Test	2	2	1	402	A2	Buchstaben	261	1
12	1	458	Test	2	3	1	375	A2	Buchstaben	262	1
12	1	475	Test	1	4	1	442	A1	Zahlen	263	2
12	1	408	Test	2	2	1	477	A2	Buchstaben	264	2
12	2	598	Test	2	3	1	472	A2	Buchstaben	265	1
12	1	500	Test	1	4	1	386	A1	Zahlen	266	2
12	1	382	Test	1	1	1	477	A2	Buchstaben	267	2
12	1	404	Test	2	2	1	468	A1	Zahlen	268	2
12	1	358	Test	1	4	1	480	A1	Zahlen	269	1
12	1	465	Test	2	2	1	383	A2	Buchstaben	270	2
12	2	582	Test	2	3	1	413	A2	Buchstaben	271	1
12	1	402	Test	1	4	1	426	A1	Zahlen	272	2
12	1	422	Test	1	1	1	413	A2	Buchstaben	273	2
12	1	407	Test	2	2	1	626	A1	Zahlen	274	2
12	1	427	Test	1	4	1	401	A1	Zahlen	275	1
12	1	392	Test	1	1	1	449	A1	Zahlen	276	1
12	1	392	Test	1	1	1	502	A2	Buchstaben	277	2
12	2	427	Test	2	2	1	529	A2	Buchstaben	278	1
12	1	403	Test	2	3	0	315	A2	Buchstaben	279	1
12	1	440	Test	1	4	1	448	A1	Zahlen	280	2
12	1	424	Test	1	1	1	469	A1	Zahlen	281	1
12	1	381	Test	1	1	1	523	A1	Zahlen	282	1
12	2	571	Test	2	2	1	373	A2	Buchstaben	283	2
12	1	437	Test	2	3	1	478	A1	Zahlen	284	2
12	1	467	Test	1	4	1	400	A2	Buchstaben	285	2
12	1	470	Test	1	1	1	435	A1	Zahlen	286	2
12	1	481	Test	2	2	1	432	A2	Buchstaben	287	2
12	1	468	Test	2	3	1	442	A2	Buchstaben	288	1
12	2	449	Test	2	3	1	389	A2	Buchstaben	289	1
12	1	487	Test	1	4	1	434	A1	Zahlen	290	2
12	1	380	Test	1	1	0	498	A2	Buchstaben	291	2
12	1	409	Test	2	2	1	380	A2	Buchstaben	292	1
12	1	417	Test	2	3	1	436	A2	Buchstaben	293	1
12	1	503	Test	2	3	1	445	A1	Zahlen	294	2
12	1	416	Test	2	3	1	444	A1	Zahlen	295	1
12	2	464	Test	2	3	1	390	A2	Buchstaben	296	2
12	1	429	Test	2	3	1	474	A2	Buchstaben	297	1
12	1	418	Test	2	3	1	512	A1	Zahlen	298	2
12	1	439	Test	2	3	1	519	A1	Zahlen	299	1
12	1	522	Test	1	4	1	514	A2	Buchstaben	300	2
12	2	502	Test	2	2	1	491	A2	Buchstaben	301	1
12	1	521	Test	1	4	1	330	A1	Zahlen	302	2
12	1	436	Test	1	1	1	627	A1	Zahlen	303	1
12	1	363	Test	1	1	1	372	A1	Zahlen	304	1
12	1	427	Test	2	2	1	426	A2	Buchstaben	305	2
12	1	453	Test	2	3	1	361	A1	Zahlen	306	2
12	1	416	Test	1	4	1	492	A2	Buchstaben	307	2
12	2	458	Test	2	2	1	320	A2	Buchstaben	308	1
12	1	377	Test	2	3	0	383	A2	Buchstaben	309	1
12	1	476	Test	1	4	1	430	A1	Zahlen	310	2
12	1	543	Test	2	2	1	413	A1	Zahlen	311	1
12	1	410	Test	2	3	1	389	A2	Buchstaben	312	2
12	1	402	Test	2	3	1	434	A1	Zahlen	313	2
12	2	465	Test	2	3	1	376	A2	Buchstaben	314	2
12	1	633	Test	2	3	1	387	A1	Zahlen	315	2
12	1	732	Test	1	4	1	377	A1	Zahlen	316	1
12	1	458	Test	2	2	1	448	A1	Zahlen	317	1
12	1	951	Test	1	4	1	488	A1	Zahlen	318	1
12	1	400	Test	1	1	1	400	A1	Zahlen	319	1
12	1	595	Test	2	2	0	316	A1	Zahlen	320	1
12	2	1539	Test	2	3	1	514	A2	Buchstaben	321	2
12	1	514	Test	1	4	1	427	A1	Zahlen	322	2
12	1	416	Test	1	1	1	395	A2	Buchstaben	323	2
12	1	416	Test	2	2	1	394	A1	Zahlen	324	2
12	1	522	Test	2	3	1	499	A1	Zahlen	325	1
12	2	445	Test	2	3	1	320	A2	Buchstaben	326	2
12	1	434	Test	1	4	1	403	A2	Buchstaben	327	1
12	1	386	Test	1	1	1	464	A2	Buchstaben	328	1
12	1	404	Test	1	1	1	404	A2	Buchstaben	329	1
12	1	532	Test	2	2	1	494	A1	Zahlen	330	2
12	2	700	Test	2	3	1	378	A2	Buchstaben	331	2
12	1	366	Test	2	3	1	481	A2	Buchstaben	332	1
12	1	834	Test	1	4	1	450	A2	Buchstaben	333	1
12	1	405	Test	2	2	1	447	A2	Buchstaben	334	1
12	1	442	Test	1	4	1	410	A2	Buchstaben	335	1
12	2	368	Test	2	2	0	386	A2	Buchstaben	336	1
12	1	354	Test	1	4	1	473	A1	Zahlen	337	2
12	1	393	Test	1	1	1	410	A1	Zahlen	338	1
12	1	497	Test	2	2	1	436	A1	Zahlen	339	1
12	1	400	Test	2	3	1	705	A1	Zahlen	340	1
12	1	447	Test	1	4	1	426	A2	Buchstaben	341	2
12	1	352	Test	1	1	1	399	A2	Buchstaben	342	1
12	2	426	Test	2	2	1	520	A2	Buchstaben	343	1
12	1	381	Test	1	4	1	483	A1	Zahlen	344	2
12	1	399	Test	1	1	1	423	A1	Zahlen	345	1
12	1	447	Test	2	2	1	386	A1	Zahlen	346	1
12	1	378	Test	2	3	1	433	A1	Zahlen	347	1
12	1	421	Test	1	4	1	459	A1	Zahlen	348	1
12	2	454	Test	2	2	1	417	A2	Buchstaben	349	2
12	1	473	Test	1	4	1	417	A2	Buchstaben	350	1
12	1	542	Test	1	1	1	412	A1	Zahlen	351	2
12	1	395	Test	1	1	1	383	A2	Buchstaben	352	2
13			Practice			1	577	A1			2
13			Practice			0	578	A1			1
13			Practice			1	536	A1			1
13			Practice			1	521	A1			1
13			Practice			1	610	A1			1
13			Practice			1	502	A1			1
13			Practice			1	708	A1			1
13			Practice			1	800	A1			1
13			Practice			1	647	A1			1
13			Practice			1	466	A1			1
13			Practice			1	929	A1			1
13			Practice			1	525	A1			1
13			Practice			1	625	A1			1
13			Practice			1	682	A1			1
13			Practice			1	603	A1			1
13			Practice			1	687	A1			1
13			Practice			1	658	A2			2
13			Practice			1	924	A2			1
13			Practice			1	542	A2			1
13			Practice			1	620	A2			1
13			Practice			1	571	A2			1
13			Practice			1	604	A2			1
13			Practice			1	530	A2			1
13			Practice			1	448	A2			1
13			Practice			1	607	A2			1
13			Practice			1	605	A2			1
13			Practice			1	513	A2			1
13			Practice			1	546	A2			1
13			Practice			1	505	A2			1
13			Practice			1	570	A2			1
13			Practice			1	480	A2			1
13			Practice			1	574	A2			1
13		6559	Practice			1	1056	A1			2
13		924	Practice			1	621	A1			1
13		4484	Practice			1	983	A2			2
13		860	Practice			1	810	A2			1
13		482	Practice			1	634	A1			2
13		690	Practice			1	581	A1			1
13		867	Practice			1	569	A2			2
13		667	Practice			1	649	A2			1
13		577	Practice			1	603	A1			2
13		602	Practice			1	570	A2			2
13		569	Practice			1	516	A2			1
13		423	Practice			1	540	A1			2
13		450	Practice			1	501	A1			1
13		612	Practice			1	430	A2			2
13		409	Practice			0	499	A1			2
13		576	Practice			1	491	A2			2
13		515	Practice			1	547	A1			2
13		584	Practice			1	519	A1			1
13		673	Practice			1	499	A2			2
13		592	Practice			1	985	A1			2
13		504	Practice			1	502	A1			1
13		649	Practice			1	436	A2			2
13		444	Practice			1	493	A2			1
13		402	Practice			1	467	A1			2
13		589	Practice			1	508	A2			2
13		415	Practice			1	458	A1			2
13		437	Practice			1	446	A1			1
13		544	Practice			1	461	A2			2
13		422	Practice			1	483	A2			1
13		707	Practice			1	433	A2			1
13		421	Practice			1	538	A2			1
13		449	Practice			1	483	A1			2
13	1	707	Baseline			0	505	A1	Zahlen	1	1
13	1	548	Baseline			1	513	A2	Buchstaben	2	2
13	1	431	Baseline			1	511	A1	Zahlen	3	2
13	1	483	Baseline			1	547	A2	Buchstaben	4	2
13	1	583	Baseline			1	437	A2	Buchstaben	5	1
13	2	505	Baseline			1	542	A1	Zahlen	6	2
13	1	514	Baseline			1	442	A2	Buchstaben	7	2
13	1	480	Baseline			1	512	A1	Zahlen	8	2
13	1	476	Baseline			1	436	A2	Buchstaben	9	2
13	1	392	Baseline			1	416	A1	Zahlen	10	2
13	1	396	Baseline			0	427	A1	Zahlen	11	1
13	2	449	Baseline			1	484	A1	Zahlen	12	1
13	1	621	Baseline			1	459	A2	Buchstaben	13	2
13	1	483	Baseline			1	420	A2	Buchstaben	14	1
13	1	433	Baseline			1	426	A1	Zahlen	15	2
13	1	407	Baseline			1	403	A1	Zahlen	16	1
13	2	1045	Baseline			1	554	A1	Zahlen	17	1
13	1	495	Baseline			1	467	A2	Buchstaben	18	2
13	1	401	Baseline			1	394	A1	Zahlen	19	2
13	1	431	Baseline			1	456	A1	Zahlen	20	1
13	1	398	Baseline			1	406	A1	Zahlen	21	1
13	2	482	Baseline			1	418	A1	Zahlen	22	1
13	1	1042	Baseline			1	487	A1	Zahlen	23	1
13	1	346	Baseline			1	480	A1	Zahlen	24	1
13	1	1074	Baseline			1	507	A1	Zahlen	25	1
13	1	493	Baseline			1	455	A2	Buchstaben	26	2
13	1	639	Baseline			1	511	A2	Buchstaben	27	1
13	2	660	Baseline			1	513	A2	Buchstaben	28	1
