Subject	Choice.RT	Mode	RewN	RSeq	Target.ACC	Target.RT	Task	TaskChoice	Transition	Trialnr
1		Baseline			1	448	A1	Zahlen	NaN	1
1	518	Baseline			1	519	A2	Buchstaben	s	2
1	362	Baseline			1	649	A1	Zahlen	s	3
1	276	Baseline			1	567	A1	Zahlen	r	4
1	294	Baseline			1	545	A1	Zahlen	r	5
1	578	Baseline			1	561	A2	Buchstaben	s	6
1	345	Baseline			1	489	A2	Buchstaben	r	7
1	323	Baseline			1	492	A2	Buchstaben	r	8
1	800	Baseline			1	581	A2	Buchstaben	r	9
1	410	Baseline			0	592	A1	Zahlen	s	10
1	410	Baseline			1	568	A1	Zahlen	r	11
1	305	Baseline			1	476	A1	Zahlen	r	12
1	273	Baseline			1	500	A2	Buchstaben	s	13
1	285	Baseline			1	488	A1	Zahlen	s	14
1	329	Baseline			1	474	A1	Zahlen	r	15
1	291	Baseline			1	430	A1	Zahlen	r	16
1	272	Baseline			1	508	A2	Buchstaben	s	17
1	259	Baseline			1	471	A2	Buchstaben	r	18
1	131	Baseline			1	581	A1	Zahlen	s	19
1	516	Baseline			1	565	A1	Zahlen	r	20
1	274	Baseline			1	533	A2	Buchstaben	s	21
1	556	Baseline			1	699	A1	Zahlen	s	22
1	357	Baseline			1	565	A2	Buchstaben	s	23
1	330	Baseline			1	491	A1	Zahlen	s	24
1	311	Baseline			1	697	A1	Zahlen	r	25
1	314	Baseline			1	451	A1	Zahlen	r	26
1	246	Baseline			1	611	A2	Buchstaben	s	27
1	256	Baseline			1	532	A2	Buchstaben	r	28
1	339	Baseline			1	548	A1	Zahlen	s	29
1	259	Baseline			1	687	A1	Zahlen	r	30
1	273	Baseline			1	500	A2	Buchstaben	s	31
1	311	Baseline			1	705	A1	Zahlen	s	32
1	364	Baseline			1	523	A2	Buchstaben	s	33
1	389	Baseline			1	508	A2	Buchstaben	r	34
1	507	Baseline			1	844	A1	Zahlen	s	35
1	392	Baseline			1	662	A1	Zahlen	r	36
1	506	Baseline			1	451	A2	Buchstaben	s	37
1	278	Baseline			1	506	A1	Zahlen	s	38
1	300	Baseline			1	502	A2	Buchstaben	s	39
1	432	Baseline			1	469	A2	Buchstaben	r	40
1	471	Baseline			1	538	A1	Zahlen	s	41
1	523	Baseline			1	523	A1	Zahlen	r	42
1	326	Baseline			1	663	A1	Zahlen	r	43
1	337	Baseline			1	530	A2	Buchstaben	s	44
1	353	Baseline			1	561	A1	Zahlen	s	45
1	303	Baseline			1	1001	A2	Buchstaben	s	46
1	429	Baseline			1	538	A2	Buchstaben	r	47
1	305	Baseline			1	508	A2	Buchstaben	r	48
1	308	Baseline			1	438	A2	Buchstaben	r	49
1	396	Baseline			1	538	A2	Buchstaben	r	50
1	265	Baseline			1	501	A1	Zahlen	s	51
1	294	Baseline			1	497	A1	Zahlen	r	52
1	233	Baseline			1	511	A1	Zahlen	r	53
1	248	Baseline			1	565	A2	Buchstaben	s	54
1	355	Baseline			1	595	A1	Zahlen	s	55
1	345	Baseline			1	601	A2	Buchstaben	s	56
1	448	Baseline			1	564	A2	Buchstaben	r	57
1	321	Baseline			1	474	A1	Zahlen	s	58
1	301	Baseline			0	623	A2	Buchstaben	s	59
1	403	Baseline			1	497	A2	Buchstaben	r	60
1	1201	Baseline			1	653	A2	Buchstaben	r	61
1	256	Baseline			1	884	A1	Zahlen	s	62
1	1100	Baseline			1	533	A2	Buchstaben	s	63
1	315	Baseline			1	509	A2	Buchstaben	r	64
1	320	Baseline			1	554	A2	Buchstaben	r	65
1	466	Baseline			1	702	A1	Zahlen	s	66
1	304	Baseline			1	498	A1	Zahlen	r	67
1	243	Baseline			1	520	A1	Zahlen	r	68
1	346	Baseline			1	642	A2	Buchstaben	s	69
1	366	Baseline			1	613	A2	Buchstaben	r	70
1	417	Baseline			1	647	A1	Zahlen	s	71
1	372	Baseline			1	579	A2	Buchstaben	s	72
1	795	Baseline			1	632	A2	Buchstaben	r	73
1	259	Baseline			1	567	A1	Zahlen	s	74
1	276	Baseline			1	503	A2	Buchstaben	s	75
1	394	Baseline			1	512	A1	Zahlen	s	76
1	360	Baseline			1	560	A2	Buchstaben	s	77
1	382	Baseline			1	525	A2	Buchstaben	r	78
1	356	Baseline			1	532	A2	Buchstaben	r	79
1	270	Baseline			1	506	A1	Zahlen	s	80
1	556	Baseline			1	532	A2	Buchstaben	s	81
1	555	Baseline			1	811	A2	Buchstaben	r	82
1	304	Baseline			1	547	A2	Buchstaben	r	83
1	248	Baseline			1	749	A1	Zahlen	s	84
1	822	Baseline			1	618	A1	Zahlen	r	85
1	414	Baseline			1	555	A1	Zahlen	r	86
1	916	Baseline			1	484	A1	Zahlen	r	87
1	526	Baseline			1	695	A2	Buchstaben	s	88
1	650	Baseline			1	558	A2	Buchstaben	r	89
1	276	Baseline			1	639	A1	Zahlen	s	90
1	482	Baseline			1	557	A1	Zahlen	r	91
1	468	Baseline			1	607	A1	Zahlen	r	92
1	373	Baseline			1	732	A2	Buchstaben	s	93
1	1155	Baseline			1	569	A2	Buchstaben	r	94
1	320	Baseline			1	554	A1	Zahlen	s	95
1	712	Baseline			1	521	A1	Zahlen	r	96
1	434	Baseline			1	519	A1	Zahlen	r	97
1	259	Baseline			1	550	A2	Buchstaben	s	98
1	276	Baseline			1	536	A1	Zahlen	s	99
1	330	Baseline			0	547	A1	Zahlen	r	100
1	2207	Baseline			1	576	A1	Zahlen	r	101
1	872	Baseline			1	586	A2	Buchstaben	s	102
1	655	Baseline			1	634	A2	Buchstaben	r	103
1	397	Baseline			1	619	A2	Buchstaben	r	104
1	642	Baseline			1	1197	A1	Zahlen	s	105
1	306	Baseline			1	411	A1	Zahlen	r	106
1	867	Baseline			1	757	A1	Zahlen	r	107
1	700	Baseline			1	614	A2	Buchstaben	s	108
1	577	Baseline			1	623	A2	Buchstaben	r	109
1	338	Baseline			1	595	A1	Zahlen	s	110
1	457	Baseline			1	484	A1	Zahlen	r	111
1	280	Baseline			1	452	A1	Zahlen	r	112
1	663	Baseline			1	498	A1	Zahlen	r	113
1	299	Baseline			1	613	A2	Buchstaben	s	114
1	578	Baseline			1	1688	A1	Zahlen	s	115
1	870	Baseline			1	520	A1	Zahlen	r	116
1	451	Baseline			1	679	A1	Zahlen	r	117
1	568	Baseline			1	631	A2	Buchstaben	s	118
1	365	Baseline			1	524	A2	Buchstaben	r	119
1	247	Baseline			1	459	A1	Zahlen	s	120
1	534	Baseline			1	631	A2	Buchstaben	s	121
1	525	Baseline			1	501	A2	Buchstaben	r	122
1	255	Baseline			1	491	A2	Buchstaben	r	123
1	501	Baseline			1	623	A1	Zahlen	s	124
1	242	Baseline			1	566	A1	Zahlen	r	125
1	412	Baseline			1	538	A1	Zahlen	r	126
1	379	Baseline			1	553	A1	Zahlen	r	127
1	386	Baseline			1	584	A2	Buchstaben	s	128
1	361	Baseline			1	584	A1	Zahlen	s	129
1	407	Baseline			1	564	A2	Buchstaben	s	130
1	386	Baseline			1	552	A1	Zahlen	s	131
1	1199	Baseline			1	667	A1	Zahlen	r	132
1	1103	Baseline			1	551	A1	Zahlen	r	133
1	536	Baseline			1	528	A2	Buchstaben	s	134
1	953	Baseline			1	601	A2	Buchstaben	r	135
1	1324	Baseline			1	562	A1	Zahlen	s	136
1	299	Baseline			1	557	A2	Buchstaben	s	137
1	726	Baseline			1	478	A2	Buchstaben	r	138
1	433	Baseline			1	525	A1	Zahlen	s	139
1	245	Baseline			1	545	A1	Zahlen	r	140
1	833	Baseline			1	900	A1	Zahlen	r	141
1	742	Baseline			1	541	A2	Buchstaben	s	142
1	272	Baseline			1	499	A2	Buchstaben	r	143
1	765	Baseline			1	499	A2	Buchstaben	r	144
1		Baseline			1	1337	A2	Buchstaben	NaN	1
1	719	Baseline			1	608	A1	Zahlen	s	2
1	422	Baseline			0	491	A1	Zahlen	r	3
1	410	Baseline			1	559	A1	Zahlen	r	4
1	398	Baseline			1	556	A1	Zahlen	r	5
1	338	Baseline			1	483	A1	Zahlen	r	6
1	351	Baseline			1	488	A2	Buchstaben	s	7
1	233	Baseline			1	542	A2	Buchstaben	r	8
1	486	Baseline			1	536	A2	Buchstaben	r	9
1	313	Baseline			1	611	A2	Buchstaben	r	10
1	408	Baseline			1	486	A2	Buchstaben	r	11
1	321	Baseline			1	563	A1	Zahlen	s	12
1	435	Baseline			1	543	A2	Buchstaben	s	13
1	479	Baseline			1	786	A1	Zahlen	s	14
1	391	Baseline			1	1358	A2	Buchstaben	s	15
1	572	Baseline			1	747	A1	Zahlen	s	16
1	316	Baseline			1	638	A1	Zahlen	r	17
1	248	Baseline			1	469	A1	Zahlen	r	18
1	346	Baseline			1	562	A1	Zahlen	r	19
1	401	Baseline			1	495	A1	Zahlen	r	20
1	560	Baseline			1	823	A1	Zahlen	r	21
1	508	Baseline			1	636	A2	Buchstaben	s	22
1	393	Baseline			1	527	A1	Zahlen	s	23
1	287	Baseline			1	578	A2	Buchstaben	s	24
1	287	Baseline			1	546	A2	Buchstaben	r	25
1	386	Baseline			1	481	A1	Zahlen	s	26
1	485	Baseline			1	472	A1	Zahlen	r	27
1	315	Baseline			1	572	A2	Buchstaben	s	28
1	244	Baseline			1	553	A2	Buchstaben	r	29
1	426	Baseline			1	455	A2	Buchstaben	r	30
1	464	Baseline			0	523	A1	Zahlen	s	31
1	257	Baseline			1	509	A2	Buchstaben	s	32
1	334	Baseline			1	543	A1	Zahlen	s	33
1	287	Baseline			1	514	A1	Zahlen	r	34
1	269	Baseline			1	528	A1	Zahlen	r	35
1	320	Baseline			1	458	A2	Buchstaben	s	36
1	271	Baseline			1	491	A2	Buchstaben	r	37
1	325	Baseline			1	502	A2	Buchstaben	r	38
1	553	Baseline			1	489	A2	Buchstaben	r	39
1	365	Baseline			1	493	A1	Zahlen	s	40
1	295	Baseline			1	657	A1	Zahlen	r	41
1	404	Baseline			1	474	A1	Zahlen	r	42
1	268	Baseline			1	480	A1	Zahlen	r	43
1	300	Baseline			1	422	A2	Buchstaben	s	44
1	394	Baseline			1	745	A1	Zahlen	s	45
1	289	Baseline			1	739	A1	Zahlen	r	46
1	226	Baseline			1	471	A2	Buchstaben	s	47
1	322	Baseline			1	468	A1	Zahlen	s	48
1	398	Baseline			1	725	A1	Zahlen	r	49
1	300	Baseline			0	582	A2	Buchstaben	s	50
1	476	Baseline			1	558	A2	Buchstaben	r	51
1	268	Baseline			1	432	A2	Buchstaben	r	52
1	380	Baseline			0	939	A1	Zahlen	s	53
1	357	Baseline			1	549	A1	Zahlen	r	54
1	396	Baseline			1	779	A1	Zahlen	r	55
1	367	Baseline			1	447	A1	Zahlen	r	56
1	491	Baseline			1	532	A1	Zahlen	r	57
1	349	Baseline			1	486	A2	Buchstaben	s	58
1	915	Baseline			1	547	A1	Zahlen	s	59
1	581	Baseline			1	643	A2	Buchstaben	s	60
1	238	Baseline			1	499	A2	Buchstaben	r	61
1	341	Baseline			1	486	A2	Buchstaben	r	62
1	255	Baseline			1	619	A1	Zahlen	s	63
1	304	Baseline			1	474	A1	Zahlen	r	64
1	318	Baseline			1	464	A2	Buchstaben	s	65
1	502	Baseline			1	584	A2	Buchstaben	r	66
1	341	Baseline			1	541	A1	Zahlen	s	67
1	374	Baseline			1	589	A1	Zahlen	r	68
1	308	Baseline			1	373	A1	Zahlen	r	69
1	245	Baseline			1	833	A1	Zahlen	r	70
1	356	Baseline			1	611	A2	Buchstaben	s	71
1	329	Baseline			1	498	A1	Zahlen	s	72
1	355	Baseline			1	523	A2	Buchstaben	s	73
1	364	Baseline			1	484	A1	Zahlen	s	74
1	392	Baseline			1	510	A2	Buchstaben	s	75
1	313	Baseline			1	498	A2	Buchstaben	r	76
1	299	Baseline			1	477	A1	Zahlen	s	77
1	359	Baseline			1	462	A1	Zahlen	r	78
1	506	Baseline			1	547	A2	Buchstaben	s	79
1	244	Baseline			1	473	A2	Buchstaben	r	80
1	741	Baseline			1	485	A2	Buchstaben	r	81
1	261	Baseline			1	529	A2	Buchstaben	r	82
1	451	Baseline			1	1063	A2	Buchstaben	r	83
1	426	Baseline			1	559	A1	Zahlen	s	84
1	246	Baseline			1	426	A2	Buchstaben	s	85
1	319	Baseline			1	568	A1	Zahlen	s	86
1	375	Baseline			1	654	A1	Zahlen	r	87
1	481	Baseline			1	788	A1	Zahlen	r	88
1	607	Baseline			1	564	A1	Zahlen	r	89
1	1665	Baseline			1	801	A1	Zahlen	r	90
1	549	Baseline			1	645	A1	Zahlen	r	91
1	569	Baseline			1	584	A1	Zahlen	r	92
1	593	Baseline			1	678	A2	Buchstaben	s	93
1	298	Baseline			1	500	A2	Buchstaben	r	94
1	592	Baseline			1	550	A1	Zahlen	s	95
1	557	Baseline			1	492	A1	Zahlen	r	96
1	566	Baseline			1	477	A1	Zahlen	r	97
1	503	Baseline			1	545	A1	Zahlen	r	98
1	560	Baseline			1	1055	A2	Buchstaben	s	99
1	472	Baseline			1	723	A1	Zahlen	s	100
1	395	Baseline			1	528	A2	Buchstaben	s	101
1	554	Baseline			1	466	A2	Buchstaben	r	102
1	315	Baseline			1	453	A2	Buchstaben	r	103
1	258	Baseline			1	581	A1	Zahlen	s	104
1	420	Baseline			1	442	A1	Zahlen	r	105
1	263	Baseline			1	443	A1	Zahlen	r	106
1	270	Baseline			1	513	A2	Buchstaben	s	107
1	476	Baseline			1	582	A1	Zahlen	s	108
1	382	Baseline			1	589	A2	Buchstaben	s	109
1	659	Baseline			0	421	A2	Buchstaben	r	110
1	1114	Baseline			1	505	A2	Buchstaben	r	111
1	561	Baseline			1	552	A2	Buchstaben	r	112
1	394	Baseline			1	664	A1	Zahlen	s	113
1	618	Baseline			1	479	A1	Zahlen	r	114
1	344	Baseline			1	616	A2	Buchstaben	s	115
1	383	Baseline			1	590	A1	Zahlen	s	116
1	634	Baseline			1	414	A1	Zahlen	r	117
1	1269	Baseline			1	558	A1	Zahlen	r	118
1	382	Baseline			1	501	A2	Buchstaben	s	119
1	1144	Baseline			1	542	A1	Zahlen	s	120
1	1102	Baseline			1	670	A2	Buchstaben	s	121
1	330	Baseline			1	627	A2	Buchstaben	r	122
1	599	Baseline			0	492	A2	Buchstaben	r	123
1	443	Baseline			1	623	A2	Buchstaben	r	124
1	398	Baseline			1	548	A1	Zahlen	s	125
1	563	Baseline			1	474	A1	Zahlen	r	126
1	364	Baseline			1	508	A2	Buchstaben	s	127
1	383	Baseline			1	582	A2	Buchstaben	r	128
1	589	Baseline			1	483	A1	Zahlen	s	129
1	543	Baseline			1	534	A1	Zahlen	r	130
1	991	Baseline			1	588	A1	Zahlen	r	131
1	372	Baseline			1	579	A1	Zahlen	r	132
1	451	Baseline			1	559	A1	Zahlen	r	133
1	476	Baseline			1	687	A2	Buchstaben	s	134
1	434	Baseline			1	646	A2	Buchstaben	r	135
1	668	Baseline			1	959	A1	Zahlen	s	136
1	1165	Baseline			1	610	A1	Zahlen	r	137
1	383	Baseline			1	470	A1	Zahlen	r	138
1	322	Baseline			1	820	A1	Zahlen	r	139
1	600	Baseline			1	526	A1	Zahlen	r	140
1	528	Baseline			1	552	A2	Buchstaben	s	141
1	288	Baseline			1	1195	A1	Zahlen	s	142
1	456	Baseline			1	475	A2	Buchstaben	s	143
1	280	Baseline			1	555	A2	Buchstaben	r	144
1		Test	1	0	1	733	A2	Buchstaben	NaN	1
1	2749	Test	2	2	1	679	A1	Zahlen	s	2
1	570	Test	2	3	1	457	A1	Zahlen	r	3
1	397	Test	1	4	1	435	A1	Zahlen	r	4
1	333	Test	1	1	1	702	A1	Zahlen	r	5
1	335	Test	1	1	1	512	A2	Buchstaben	s	6
1	223	Test	1	1	1	653	A2	Buchstaben	r	7
1	399	Test	1	1	1	485	A2	Buchstaben	r	8
1	510	Test	2	2	1	487	A1	Zahlen	s	9
1	328	Test	2	3	1	401	A1	Zahlen	r	10
1	56	Test	1	4	1	580	A2	Buchstaben	s	11
1	387	Test	2	2	0	473	A1	Zahlen	s	12
1	452	Test	1	4	1	520	A2	Buchstaben	s	13
1	353	Test	2	2	0	394	A2	Buchstaben	r	14
1	1107	Test	1	4	1	651	A2	Buchstaben	r	15
1	364	Test	2	2	1	691	A2	Buchstaben	r	16
1	451	Test	2	3	1	455	A1	Zahlen	s	17
1	290	Test	1	4	1	468	A2	Buchstaben	s	18
1	393	Test	2	2	1	447	A2	Buchstaben	r	19
1	369	Test	2	3	1	544	A1	Zahlen	s	20
1	2058	Test	2	3	1	418	A1	Zahlen	r	21
1	806	Test	1	4	1	491	A2	Buchstaben	s	22
1	229	Test	2	2	1	443	A2	Buchstaben	r	23
1	326	Test	1	4	1	367	A1	Zahlen	s	24
1	405	Test	1	1	1	475	A2	Buchstaben	s	25
1	680	Test	2	2	1	410	A2	Buchstaben	r	26
1	1250	Test	2	3	1	403	A1	Zahlen	s	27
1	353	Test	1	4	1	418	A2	Buchstaben	s	28
1	285	Test	2	2	1	448	A2	Buchstaben	r	29
1	539	Test	1	4	1	683	A1	Zahlen	s	30
1	188	Test	2	2	1	435	A1	Zahlen	r	31
1	246	Test	2	3	1	482	A1	Zahlen	r	32
1	1454	Test	1	4	1	359	A2	Buchstaben	s	33
1	752	Test	2	2	1	535	A2	Buchstaben	r	34
1	1039	Test	2	3	1	402	A1	Zahlen	s	35
1	271	Test	2	3	1	443	A2	Buchstaben	s	36
1	320	Test	2	3	1	569	A1	Zahlen	s	37
1	1689	Test	1	4	0	464	A1	Zahlen	r	38
1	1141	Test	1	1	1	579	A2	Buchstaben	s	39
1	707	Test	1	1	1	444	A2	Buchstaben	r	40
1	360	Test	1	1	1	480	A1	Zahlen	s	41
1	602	Test	1	1	1	424	A1	Zahlen	r	42
1	270	Test	2	2	1	433	A1	Zahlen	r	43
1	286	Test	1	4	1	449	A2	Buchstaben	s	44
1	276	Test	2	2	1	471	A1	Zahlen	s	45
1	354	Test	2	3	1	482	A2	Buchstaben	s	46
1	477	Test	1	4	1	512	A2	Buchstaben	r	47
1	311	Test	2	2	1	489	A1	Zahlen	s	48
1	354	Test	2	3	1	474	A2	Buchstaben	s	49
1	538	Test	1	4	1	451	A2	Buchstaben	r	50
1	413	Test	1	1	0	434	A2	Buchstaben	r	51
1	530	Test	1	1	1	594	A2	Buchstaben	r	52
1	825	Test	1	1	1	573	A2	Buchstaben	r	53
1	315	Test	1	1	1	525	A1	Zahlen	s	54
1	428	Test	1	1	1	577	A2	Buchstaben	s	55
1	328	Test	1	1	1	481	A1	Zahlen	s	56
1	394	Test	2	2	1	456	A1	Zahlen	r	57
1	411	Test	1	4	1	464	A1	Zahlen	r	58
1	325	Test	2	2	1	478	A1	Zahlen	r	59
1	314	Test	2	3	1	436	A1	Zahlen	r	60
1	441	Test	1	4	1	501	A2	Buchstaben	s	61
1	422	Test	2	2	1	459	A1	Zahlen	s	62
1	375	Test	2	3	1	470	A2	Buchstaben	s	63
1	473	Test	1	4	1	596	A2	Buchstaben	r	64
1	1203	Test	1	1	1	463	A2	Buchstaben	r	65
1	516	Test	2	2	1	469	A2	Buchstaben	r	66
1	1264	Test	1	4	1	521	A1	Zahlen	s	67
1	289	Test	2	2	1	515	A1	Zahlen	r	68
1	403	Test	1	4	1	594	A1	Zahlen	r	69
1	752	Test	2	2	1	431	A1	Zahlen	r	70
1	346	Test	2	3	1	586	A2	Buchstaben	s	71
1	1063	Test	2	3	1	529	A2	Buchstaben	r	72
1	337	Test	1	4	1	570	A2	Buchstaben	r	73
1	399	Test	2	2	1	461	A2	Buchstaben	r	74
1	542	Test	1	4	1	422	A1	Zahlen	s	75
1	370	Test	1	1	1	426	A2	Buchstaben	s	76
1	689	Test	1	1	1	467	A2	Buchstaben	r	77
1	549	Test	2	2	1	437	A2	Buchstaben	r	78
1	463	Test	1	4	1	498	A1	Zahlen	s	79
1	374	Test	2	2	1	557	A1	Zahlen	r	80
1	294	Test	2	3	1	384	A2	Buchstaben	s	81
1	200	Test	1	4	1	511	A1	Zahlen	s	82
1	342	Test	2	2	1	510	A2	Buchstaben	s	83
1	351	Test	1	4	1	463	A2	Buchstaben	r	84
1	379	Test	1	1	1	361	A2	Buchstaben	r	85
1	489	Test	1	1	1	427	A1	Zahlen	s	86
1	326	Test	1	1	1	471	A2	Buchstaben	s	87
1	433	Test	2	2	1	550	A1	Zahlen	s	88
1	388	Test	1	4	1	449	A1	Zahlen	r	89
1	364	Test	1	1	1	421	A2	Buchstaben	s	90
1	488	Test	2	2	0	394	A2	Buchstaben	r	91
1	831	Test	2	3	1	603	A1	Zahlen	s	92
1	1153	Test	2	3	0	447	A1	Zahlen	r	93
1	670	Test	1	4	1	537	A1	Zahlen	r	94
1	514	Test	1	1	1	611	A1	Zahlen	r	95
1	1921	Test	1	1	1	366	A2	Buchstaben	s	96
1	300	Test	1	1	1	471	A1	Zahlen	s	97
1	530	Test	2	2	1	474	A2	Buchstaben	s	98
1	374	Test	1	4	1	421	A2	Buchstaben	r	99
1	504	Test	2	2	1	482	A2	Buchstaben	r	100
1	508	Test	2	3	0	614	A2	Buchstaben	r	101
1	587	Test	1	4	1	561	A1	Zahlen	s	102
1	289	Test	1	1	1	452	A1	Zahlen	r	103
1	273	Test	1	1	1	509	A1	Zahlen	r	104
1	535	Test	2	2	1	343	A1	Zahlen	r	105
1	400	Test	1	4	1	494	A2	Buchstaben	s	106
1	551	Test	1	1	1	463	A1	Zahlen	s	107
1	1706	Test	1	1	1	569	A2	Buchstaben	s	108
1	407	Test	2	2	1	492	A2	Buchstaben	r	109
1	508	Test	2	3	1	438	A1	Zahlen	s	110
1	370	Test	1	4	0	538	A1	Zahlen	r	111
1	694	Test	2	2	1	519	A1	Zahlen	r	112
1	266	Test	2	3	1	438	A1	Zahlen	r	113
1	449	Test	1	4	1	405	A1	Zahlen	r	114
1	628	Test	1	1	1	449	A1	Zahlen	r	115
1	1014	Test	2	2	1	522	A2	Buchstaben	s	116
1	619	Test	1	4	1	448	A2	Buchstaben	r	117
1	1334	Test	1	1	1	541	A1	Zahlen	s	118
1	445	Test	2	2	1	401	A1	Zahlen	r	119
1	685	Test	2	3	1	487	A1	Zahlen	r	120
1	248	Test	2	3	1	469	A2	Buchstaben	s	121
1	215	Test	2	3	1	493	A2	Buchstaben	r	122
1	421	Test	1	4	1	531	A2	Buchstaben	r	123
1	354	Test	1	1	1	458	A1	Zahlen	s	124
1	269	Test	1	1	1	672	A2	Buchstaben	s	125
1	355	Test	2	2	1	395	A2	Buchstaben	r	126
1	343	Test	2	3	1	478	A2	Buchstaben	r	127
1	496	Test	2	3	0	522	A1	Zahlen	s	128
1	467	Test	2	3	1	526	A2	Buchstaben	s	129
1	343	Test	2	3	1	535	A2	Buchstaben	r	130
1	358	Test	2	3	1	477	A2	Buchstaben	r	131
1	333	Test	2	3	1	486	A2	Buchstaben	r	132
1	257	Test	2	3	1	589	A1	Zahlen	s	133
1	378	Test	2	3	1	449	A2	Buchstaben	s	134
1	404	Test	1	4	0	514	A2	Buchstaben	r	135
1	364	Test	2	2	1	372	A2	Buchstaben	r	136
1	499	Test	1	4	1	501	A2	Buchstaben	r	137
1	622	Test	1	1	1	514	A2	Buchstaben	r	138
1	291	Test	2	2	1	605	A1	Zahlen	s	139
1	292	Test	1	4	1	415	A1	Zahlen	r	140
1	338	Test	2	2	1	459	A1	Zahlen	r	141
1	359	Test	2	3	1	423	A1	Zahlen	r	142
1	548	Test	1	4	0	508	A1	Zahlen	r	143
1	600	Test	1	1	1	670	A1	Zahlen	r	144
1	335	Test	2	2	1	432	A1	Zahlen	r	145
1	349	Test	2	3	1	525	A2	Buchstaben	s	146
1	372	Test	2	3	1	555	A1	Zahlen	s	147
1	516	Test	1	4	1	525	A2	Buchstaben	s	148
1	563	Test	1	1	1	410	A1	Zahlen	s	149
1	311	Test	2	2	0	425	A2	Buchstaben	s	150
1	1669	Test	1	4	1	677	A1	Zahlen	s	151
1	345	Test	1	1	1	497	A1	Zahlen	r	152
1	403	Test	2	2	1	690	A1	Zahlen	r	153
1	339	Test	1	4	1	356	A1	Zahlen	r	154
1	355	Test	2	2	1	515	A1	Zahlen	r	155
1	324	Test	1	4	1	421	A2	Buchstaben	s	156
1	192	Test	1	1	1	535	A2	Buchstaben	r	157
1	440	Test	2	2	1	500	A2	Buchstaben	r	158
1	428	Test	2	3	1	409	A2	Buchstaben	r	159
1	630	Test	2	3	1	770	A1	Zahlen	s	160
1		Test	1	0	1	563	A1	Zahlen	NaN	1
1	356	Test	2	2	1	468	A1	Zahlen	r	2
1	567	Test	2	3	1	422	A2	Buchstaben	s	3
1	260	Test	1	4	1	567	A2	Buchstaben	r	4
1	253	Test	1	1	1	410	A2	Buchstaben	r	5
1	358	Test	1	1	1	542	A2	Buchstaben	r	6
1	365	Test	1	1	1	373	A2	Buchstaben	r	7
1	364	Test	1	1	1	467	A1	Zahlen	s	8
1	247	Test	2	2	1	611	A1	Zahlen	r	9
1	473	Test	2	3	1	651	A1	Zahlen	r	10
1	304	Test	1	4	1	570	A1	Zahlen	r	11
1	383	Test	2	2	1	398	A1	Zahlen	r	12
1	259	Test	1	4	1	439	A2	Buchstaben	s	13
1	901	Test	2	2	1	438	A1	Zahlen	s	14
1	362	Test	1	4	1	410	A1	Zahlen	r	15
1	598	Test	2	2	1	468	A1	Zahlen	r	16
1	262	Test	2	3	1	490	A1	Zahlen	r	17
1	284	Test	1	4	1	415	A1	Zahlen	r	18
1	373	Test	2	2	1	420	A1	Zahlen	r	19
1	403	Test	2	3	1	441	A1	Zahlen	r	20
1	317	Test	2	3	1	439	A1	Zahlen	r	21
1	668	Test	1	4	1	519	A1	Zahlen	r	22
1	343	Test	2	2	0	463	A2	Buchstaben	s	23
1	403	Test	1	4	1	513	A2	Buchstaben	r	24
1	363	Test	1	1	1	475	A2	Buchstaben	r	25
1	415	Test	2	2	1	404	A2	Buchstaben	r	26
1	347	Test	2	3	1	476	A2	Buchstaben	r	27
1	808	Test	1	4	1	412	A2	Buchstaben	r	28
1	403	Test	2	2	1	529	A2	Buchstaben	r	29
1	289	Test	1	4	0	395	A2	Buchstaben	r	30
1	251	Test	2	2	1	464	A2	Buchstaben	r	31
1	483	Test	2	3	1	541	A1	Zahlen	s	32
1	359	Test	1	4	1	407	A1	Zahlen	r	33
1	365	Test	2	2	1	484	A1	Zahlen	r	34
1	431	Test	2	3	1	467	A1	Zahlen	r	35
1	334	Test	2	3	1	527	A1	Zahlen	r	36
1	421	Test	2	3	1	563	A2	Buchstaben	s	37
1	1667	Test	1	4	1	435	A2	Buchstaben	r	38
1	532	Test	1	1	1	445	A2	Buchstaben	r	39
1	755	Test	1	1	1	473	A2	Buchstaben	r	40
1	565	Test	1	1	1	436	A2	Buchstaben	r	41
1	1160	Test	1	1	1	549	A2	Buchstaben	r	42
1	566	Test	2	2	1	469	A2	Buchstaben	r	43
1	672	Test	1	4	1	514	A1	Zahlen	s	44
1	2171	Test	2	2	0	550	A1	Zahlen	r	45
1	2229	Test	2	3	1	421	A1	Zahlen	r	46
1	435	Test	1	4	1	495	A1	Zahlen	r	47
1	3459	Test	2	2	1	431	A1	Zahlen	r	48
1	426	Test	2	3	1	527	A1	Zahlen	r	49
1	1705	Test	1	4	1	455	A2	Buchstaben	s	50
1	891	Test	1	1	1	556	A1	Zahlen	s	51
1	380	Test	1	1	1	451	A2	Buchstaben	s	52
1	440	Test	1	1	1	428	A1	Zahlen	s	53
1	922	Test	1	1	1	442	A2	Buchstaben	s	54
1	407	Test	1	1	1	717	A1	Zahlen	s	55
1	342	Test	1	1	1	526	A2	Buchstaben	s	56
1	1333	Test	2	2	1	371	A2	Buchstaben	r	57
1	1130	Test	1	4	1	553	A1	Zahlen	s	58
1	648	Test	2	2	1	508	A1	Zahlen	r	59
1	412	Test	2	3	1	593	A1	Zahlen	r	60
1	478	Test	1	4	1	441	A1	Zahlen	r	61
1	678	Test	2	2	1	456	A1	Zahlen	r	62
1	332	Test	2	3	1	397	A1	Zahlen	r	63
1	355	Test	1	4	1	419	A2	Buchstaben	s	64
1	23	Test	1	1	1	1157	A2	Buchstaben	r	65
1	745	Test	2	2	1	416	A2	Buchstaben	r	66
1	491	Test	1	4	1	517	A2	Buchstaben	r	67
1	661	Test	2	2	1	599	A2	Buchstaben	r	68
1	774	Test	1	4	1	548	A1	Zahlen	s	69
1	348	Test	2	2	1	420	A2	Buchstaben	s	70
1	329	Test	2	3	1	450	A2	Buchstaben	r	71
1	525	Test	2	3	1	581	A2	Buchstaben	r	72
1	564	Test	1	4	1	363	A2	Buchstaben	r	73
1	403	Test	2	2	0	434	A2	Buchstaben	r	74
1	1071	Test	1	4	1	522	A1	Zahlen	s	75
1	314	Test	1	1	1	483	A1	Zahlen	r	76
1	398	Test	1	1	1	420	A1	Zahlen	r	77
1	383	Test	2	2	1	598	A1	Zahlen	r	78
1	516	Test	1	4	1	445	A1	Zahlen	r	79
1	467	Test	2	2	1	446	A1	Zahlen	r	80
1	522	Test	2	3	1	523	A1	Zahlen	r	81
1	562	Test	1	4	1	497	A1	Zahlen	r	82
1	598	Test	2	2	1	483	A1	Zahlen	r	83
1	765	Test	1	4	1	467	A1	Zahlen	r	84
1	469	Test	1	1	1	609	A1	Zahlen	r	85
1	431	Test	1	1	1	476	A1	Zahlen	r	86
1	517	Test	1	1	1	574	A2	Buchstaben	s	87
1	235	Test	2	2	1	489	A2	Buchstaben	r	88
1	356	Test	1	4	1	475	A2	Buchstaben	r	89
1	302	Test	1	1	1	465	A2	Buchstaben	r	90
1	402	Test	2	2	1	424	A2	Buchstaben	r	91
1	446	Test	2	3	1	554	A2	Buchstaben	r	92
1	247	Test	2	3	1	475	A2	Buchstaben	r	93
1	453	Test	1	4	1	561	A2	Buchstaben	r	94
1	400	Test	1	1	1	390	A2	Buchstaben	r	95
1	244	Test	1	1	1	425	A2	Buchstaben	r	96
1	389	Test	1	1	1	483	A2	Buchstaben	r	97
1	467	Test	2	2	1	454	A2	Buchstaben	r	98
1	507	Test	1	4	1	428	A2	Buchstaben	r	99
1	1320	Test	2	2	1	438	A1	Zahlen	s	100
1	332	Test	2	3	1	485	A1	Zahlen	r	101
1	321	Test	1	4	0	443	A1	Zahlen	r	102
1	640	Test	1	1	1	395	A1	Zahlen	r	103
1	370	Test	1	1	1	466	A1	Zahlen	r	104
1	276	Test	2	2	1	439	A1	Zahlen	r	105
1	349	Test	1	4	1	542	A1	Zahlen	r	106
1	646	Test	1	1	1	482	A1	Zahlen	r	107
1	243	Test	1	1	1	464	A1	Zahlen	r	108
1	466	Test	2	2	1	542	A1	Zahlen	r	109
1	454	Test	2	3	1	458	A1	Zahlen	r	110
1	365	Test	1	4	1	452	A1	Zahlen	r	111
1	319	Test	2	2	1	457	A2	Buchstaben	s	112
1	611	Test	2	3	1	495	A2	Buchstaben	r	113
1	289	Test	1	4	1	491	A1	Zahlen	s	114
1	460	Test	1	1	1	431	A1	Zahlen	r	115
1	68	Test	2	2	1	584	A2	Buchstaben	s	116
1	576	Test	1	4	1	431	A1	Zahlen	s	117
1	322	Test	1	1	1	587	A2	Buchstaben	s	118
1	38	Test	2	2	1	556	A2	Buchstaben	r	119
1	674	Test	2	3	1	436	A2	Buchstaben	r	120
1	1200	Test	2	3	0	420	A2	Buchstaben	r	121
1	690	Test	2	3	1	379	A1	Zahlen	s	122
1	395	Test	1	4	1	497	A1	Zahlen	r	123
1	469	Test	1	1	1	457	A1	Zahlen	r	124
1	509	Test	1	1	1	646	A1	Zahlen	r	125
1	482	Test	2	2	1	477	A1	Zahlen	r	126
1	486	Test	2	3	1	400	A1	Zahlen	r	127
1	927	Test	2	3	1	494	A1	Zahlen	r	128
1	385	Test	2	3	1	480	A1	Zahlen	r	129
1	395	Test	2	3	1	505	A1	Zahlen	r	130
1	336	Test	2	3	1	377	A1	Zahlen	r	131
1	455	Test	2	3	1	402	A1	Zahlen	r	132
1	416	Test	2	3	1	621	A1	Zahlen	r	133
1	344	Test	2	3	1	545	A1	Zahlen	r	134
1	594	Test	1	4	1	464	A2	Buchstaben	s	135
1	1501	Test	2	2	1	484	A2	Buchstaben	r	136
1	584	Test	1	4	1	486	A2	Buchstaben	r	137
1	639	Test	1	1	1	563	A2	Buchstaben	r	138
1	1355	Test	2	2	1	409	A1	Zahlen	s	139
1	140	Test	1	4	1	541	A2	Buchstaben	s	140
1	383	Test	2	2	1	358	A1	Zahlen	s	141
1	422	Test	2	3	1	475	A2	Buchstaben	s	142
1	551	Test	1	4	1	431	A2	Buchstaben	r	143
1	1235	Test	1	1	1	885	A1	Zahlen	s	144
1	329	Test	2	2	1	426	A1	Zahlen	r	145
1	341	Test	2	3	1	494	A1	Zahlen	r	146
1	374	Test	2	3	1	589	A1	Zahlen	r	147
1	1307	Test	1	4	1	458	A2	Buchstaben	s	148
1	255	Test	1	1	1	411	A2	Buchstaben	r	149
1	728	Test	2	2	0	383	A2	Buchstaben	r	150
1	1380	Test	1	4	1	440	A2	Buchstaben	r	151
1	364	Test	1	1	1	500	A2	Buchstaben	r	152
1	573	Test	2	2	1	420	A2	Buchstaben	r	153
1	496	Test	1	4	1	474	A2	Buchstaben	r	154
1	853	Test	2	2	1	432	A2	Buchstaben	r	155
1	380	Test	1	4	1	603	A2	Buchstaben	r	156
1	433	Test	1	1	0	558	A1	Zahlen	s	157
1	712	Test	2	2	1	473	A2	Buchstaben	s	158
1	387	Test	2	3	1	434	A1	Zahlen	s	159
1	341	Test	2	3	1	453	A1	Zahlen	r	160
1		Test	1	0	1	632	A2	Buchstaben	NaN	1
1	331	Test	2	2	1	452	A2	Buchstaben	r	2
1	409	Test	2	3	1	358	A2	Buchstaben	r	3
1	420	Test	1	4	0	474	A1	Zahlen	s	4
1	293	Test	1	1	0	480	A1	Zahlen	r	5
1	353	Test	1	1	1	401	A1	Zahlen	r	6
1	382	Test	1	1	1	525	A1	Zahlen	r	7
1	364	Test	1	1	1	588	A1	Zahlen	r	8
1	355	Test	2	2	1	483	A1	Zahlen	r	9
1	463	Test	2	3	1	491	A1	Zahlen	r	10
1	454	Test	1	4	1	514	A1	Zahlen	r	11
1	410	Test	2	2	1	496	A1	Zahlen	r	12
1	290	Test	1	4	1	525	A2	Buchstaben	s	13
1	358	Test	2	2	1	478	A2	Buchstaben	r	14
1	606	Test	1	4	1	451	A2	Buchstaben	r	15
1	616	Test	2	2	1	397	A2	Buchstaben	r	16
1	496	Test	2	3	1	434	A2	Buchstaben	r	17
1	376	Test	1	4	1	463	A2	Buchstaben	r	18
1	386	Test	2	2	1	489	A2	Buchstaben	r	19
1	444	Test	2	3	1	424	A2	Buchstaben	r	20
1	380	Test	2	3	1	579	A2	Buchstaben	r	21
1	593	Test	1	4	1	439	A2	Buchstaben	r	22
1	426	Test	2	2	1	422	A1	Zahlen	s	23
1	379	Test	1	4	1	458	A1	Zahlen	r	24
1	375	Test	1	1	1	462	A1	Zahlen	r	25
1	872	Test	2	2	1	410	A1	Zahlen	r	26
1	686	Test	2	3	1	528	A1	Zahlen	r	27
1	496	Test	1	4	1	466	A2	Buchstaben	s	28
1	654	Test	2	2	1	417	A2	Buchstaben	r	29
1	590	Test	1	4	0	403	A2	Buchstaben	r	30
1	1211	Test	2	2	1	575	A2	Buchstaben	r	31
1	365	Test	2	3	0	348	A2	Buchstaben	r	32
1	444	Test	1	4	1	416	A2	Buchstaben	r	33
1	382	Test	2	2	1	509	A2	Buchstaben	r	34
1	400	Test	2	3	1	439	A2	Buchstaben	r	35
1	282	Test	2	3	1	389	A1	Zahlen	s	36
1	315	Test	2	3	1	453	A1	Zahlen	r	37
1	424	Test	1	4	1	405	A1	Zahlen	r	38
1	275	Test	1	1	1	438	A1	Zahlen	r	39
1	364	Test	1	1	1	492	A1	Zahlen	r	40
1	391	Test	1	1	1	773	A1	Zahlen	r	41
1	443	Test	1	1	1	439	A1	Zahlen	r	42
1	363	Test	2	2	0	482	A2	Buchstaben	s	43
1	352	Test	1	4	1	457	A2	Buchstaben	r	44
1	460	Test	2	2	1	440	A2	Buchstaben	r	45
1	325	Test	2	3	1	358	A2	Buchstaben	r	46
1	324	Test	1	4	1	445	A1	Zahlen	s	47
1	240	Test	2	2	1	509	A2	Buchstaben	s	48
1	471	Test	2	3	1	578	A2	Buchstaben	r	49
1	424	Test	1	4	1	477	A2	Buchstaben	r	50
1	345	Test	1	1	1	449	A1	Zahlen	s	51
1	261	Test	1	1	1	569	A1	Zahlen	r	52
1	271	Test	1	1	1	587	A1	Zahlen	r	53
1	328	Test	1	1	1	457	A1	Zahlen	r	54
1	403	Test	1	1	1	441	A1	Zahlen	r	55
1	1007	Test	1	1	1	532	A2	Buchstaben	s	56
1	378	Test	2	2	1	401	A2	Buchstaben	r	57
1	608	Test	1	4	1	485	A2	Buchstaben	r	58
1	600	Test	2	2	1	430	A2	Buchstaben	r	59
1	937	Test	2	3	1	464	A2	Buchstaben	r	60
1	613	Test	1	4	1	506	A1	Zahlen	s	61
1	611	Test	2	2	1	464	A1	Zahlen	r	62
1	434	Test	2	3	1	383	A2	Buchstaben	s	63
1	326	Test	1	4	1	487	A2	Buchstaben	r	64
1	351	Test	1	1	0	591	A1	Zahlen	s	65
1	335	Test	2	2	1	488	A1	Zahlen	r	66
1	392	Test	1	4	1	414	A1	Zahlen	r	67
1	394	Test	2	2	1	488	A1	Zahlen	r	68
1	771	Test	1	4	1	681	A1	Zahlen	r	69
1	1234	Test	2	2	1	428	A1	Zahlen	r	70
1	544	Test	2	3	1	496	A1	Zahlen	r	71
1	448	Test	2	3	1	580	A1	Zahlen	r	72
1	315	Test	1	4	1	589	A2	Buchstaben	s	73
1	980	Test	2	2	1	457	A2	Buchstaben	r	74
1	429	Test	1	4	1	394	A2	Buchstaben	r	75
1	430	Test	1	1	1	395	A2	Buchstaben	r	76
1	555	Test	1	1	1	611	A2	Buchstaben	r	77
1	473	Test	2	2	1	443	A2	Buchstaben	r	78
1	509	Test	1	4	1	406	A1	Zahlen	s	79
1	402	Test	2	2	1	513	A1	Zahlen	r	80
1	347	Test	2	3	1	403	A1	Zahlen	r	81
1	361	Test	1	4	1	440	A1	Zahlen	r	82
1	1503	Test	2	2	1	478	A1	Zahlen	r	83
1	337	Test	1	4	1	466	A1	Zahlen	r	84
1	460	Test	1	1	1	407	A2	Buchstaben	s	85
1	294	Test	1	1	1	665	A1	Zahlen	s	86
1	402	Test	1	1	1	496	A2	Buchstaben	s	87
1	491	Test	2	2	1	501	A2	Buchstaben	r	88
1	485	Test	1	4	1	423	A2	Buchstaben	r	89
1	325	Test	1	1	1	446	A2	Buchstaben	r	90
1	570	Test	2	2	0	417	A2	Buchstaben	r	91
1	365	Test	2	3	1	501	A2	Buchstaben	r	92
1	337	Test	2	3	1	482	A1	Zahlen	s	93
1	1188	Test	1	4	1	465	A1	Zahlen	r	94
1	429	Test	1	1	1	538	A1	Zahlen	r	95
1	595	Test	1	1	1	480	A1	Zahlen	r	96
1	629	Test	1	1	1	457	A1	Zahlen	r	97
1	1042	Test	2	2	1	549	A1	Zahlen	r	98
1	334	Test	1	4	1	455	A1	Zahlen	r	99
1	241	Test	2	2	1	558	A2	Buchstaben	s	100
1	1165	Test	2	3	1	482	A2	Buchstaben	r	101
1	299	Test	1	4	1	436	A2	Buchstaben	r	102
1	327	Test	1	1	1	465	A2	Buchstaben	r	103
1	445	Test	1	1	1	345	A2	Buchstaben	r	104
1	388	Test	2	2	1	418	A2	Buchstaben	r	105
1	320	Test	1	4	1	617	A2	Buchstaben	r	106
1	335	Test	1	1	1	464	A1	Zahlen	s	107
1	365	Test	1	1	1	476	A1	Zahlen	r	108
1	1440	Test	2	2	1	410	A1	Zahlen	r	109
1	383	Test	2	3	1	454	A1	Zahlen	r	110
1	635	Test	1	4	1	471	A2	Buchstaben	s	111
1	962	Test	2	2	1	480	A2	Buchstaben	r	112
1	609	Test	2	3	1	406	A2	Buchstaben	r	113
1	451	Test	1	4	1	479	A2	Buchstaben	r	114
1	424	Test	1	1	1	364	A1	Zahlen	s	115
1	394	Test	2	2	1	488	A1	Zahlen	r	116
1	364	Test	1	4	1	436	A1	Zahlen	r	117
1	287	Test	1	1	1	498	A2	Buchstaben	s	118
1	366	Test	2	2	1	453	A1	Zahlen	s	119
1	352	Test	2	3	1	448	A2	Buchstaben	s	120
1	389	Test	2	3	1	499	A1	Zahlen	s	121
1	428	Test	2	3	1	433	A2	Buchstaben	s	122
1	534	Test	1	4	1	495	A2	Buchstaben	r	123
1	546	Test	1	1	0	506	A2	Buchstaben	r	124
1	378	Test	1	1	1	489	A2	Buchstaben	r	125
1	683	Test	2	2	1	517	A2	Buchstaben	r	126
1	980	Test	2	3	1	433	A2	Buchstaben	r	127
1	357	Test	2	3	1	429	A1	Zahlen	s	128
1	376	Test	2	3	1	399	A1	Zahlen	r	129
1	381	Test	2	3	1	564	A1	Zahlen	r	130
1	419	Test	2	3	1	464	A1	Zahlen	r	131
1	642	Test	2	3	0	421	A1	Zahlen	r	132
1	1142	Test	2	3	1	452	A1	Zahlen	r	133
1	424	Test	2	3	0	693	A1	Zahlen	r	134
1	813	Test	1	4	1	522	A1	Zahlen	r	135
1	337	Test	2	2	1	434	A1	Zahlen	r	136
1	383	Test	1	4	1	470	A1	Zahlen	r	137
1	431	Test	1	1	1	756	A2	Buchstaben	s	138
1	328	Test	2	2	0	353	A2	Buchstaben	r	139
1	881	Test	1	4	1	371	A2	Buchstaben	r	140
1	464	Test	2	2	1	467	A2	Buchstaben	r	141
1	311	Test	2	3	1	440	A2	Buchstaben	r	142
1	395	Test	1	4	1	537	A2	Buchstaben	r	143
1	707	Test	1	1	1	507	A2	Buchstaben	r	144
1	523	Test	2	2	1	428	A2	Buchstaben	r	145
1	513	Test	2	3	1	467	A2	Buchstaben	r	146
1	446	Test	2	3	1	506	A2	Buchstaben	r	147
1	685	Test	1	4	1	463	A2	Buchstaben	r	148
1	962	Test	1	1	1	384	A2	Buchstaben	r	149
1	265	Test	2	2	1	517	A1	Zahlen	s	150
1	403	Test	1	4	1	394	A2	Buchstaben	s	151
1	401	Test	1	1	1	447	A1	Zahlen	s	152
1	468	Test	2	2	0	439	A1	Zahlen	r	153
1	331	Test	1	4	1	388	A1	Zahlen	r	154
1	649	Test	2	2	1	413	A1	Zahlen	r	155
1	514	Test	1	4	1	459	A1	Zahlen	r	156
1	487	Test	1	1	1	418	A1	Zahlen	r	157
1	784	Test	2	2	1	742	A1	Zahlen	r	158
1	381	Test	2	3	1	444	A1	Zahlen	r	159
1	432	Test	2	3	1	501	A1	Zahlen	r	160
10		Baseline			1	572	A2	Buchstaben	NaN	1
10	410	Baseline			0	536	A1	Zahlen	s	2
10	551	Baseline			1	534	A1	Zahlen	r	3
10	375	Baseline			1	638	A1	Zahlen	r	4
10	322	Baseline			1	555	A1	Zahlen	r	5
10	409	Baseline			1	622	A2	Buchstaben	s	6
10	475	Baseline			0	997	A1	Zahlen	s	7
10	407	Baseline			1	725	A1	Zahlen	r	8
10	317	Baseline			1	591	A1	Zahlen	r	9
10	502	Baseline			1	528	A1	Zahlen	r	10
10	322	Baseline			1	483	A1	Zahlen	r	11
10	519	Baseline			1	616	A2	Buchstaben	s	12
10	428	Baseline			1	649	A2	Buchstaben	r	13
10	365	Baseline			1	500	A2	Buchstaben	r	14
10	318	Baseline			1	512	A2	Buchstaben	r	15
10	331	Baseline			1	604	A2	Buchstaben	r	16
10	400	Baseline			1	654	A1	Zahlen	s	17
10	234	Baseline			1	503	A1	Zahlen	r	18
10	251	Baseline			1	415	A1	Zahlen	r	19
10	380	Baseline			1	523	A1	Zahlen	r	20
10	299	Baseline			1	477	A1	Zahlen	r	21
10	263	Baseline			0	482	A1	Zahlen	r	22
10	374	Baseline			1	517	A2	Buchstaben	s	23
10	510	Baseline			1	751	A2	Buchstaben	r	24
10	374	Baseline			1	580	A2	Buchstaben	r	25
10	237	Baseline			1	561	A2	Buchstaben	r	26
10	234	Baseline			1	567	A2	Buchstaben	r	27
10	327	Baseline			1	560	A2	Buchstaben	r	28
10	265	Baseline			0	476	A1	Zahlen	s	29
10	363	Baseline			1	515	A1	Zahlen	r	30
10	348	Baseline			1	580	A1	Zahlen	r	31
10	259	Baseline			1	510	A1	Zahlen	r	32
10	305	Baseline			1	515	A2	Buchstaben	s	33
10	571	Baseline			1	466	A2	Buchstaben	r	34
10	318	Baseline			1	488	A2	Buchstaben	r	35
10	218	Baseline			1	632	A2	Buchstaben	r	36
10	382	Baseline			1	565	A2	Buchstaben	r	37
10	355	Baseline			1	891	A1	Zahlen	s	38
10	260	Baseline			1	472	A1	Zahlen	r	39
10	605	Baseline			1	554	A1	Zahlen	r	40
10	264	Baseline			1	476	A1	Zahlen	r	41
10	289	Baseline			1	1452	A2	Buchstaben	s	42
10	221	Baseline			1	563	A2	Buchstaben	r	43
10	337	Baseline			1	594	A2	Buchstaben	r	44
10	523	Baseline			1	508	A2	Buchstaben	r	45
10	229	Baseline			0	538	A2	Buchstaben	r	46
10	288	Baseline			1	539	A1	Zahlen	s	47
10	259	Baseline			1	527	A1	Zahlen	r	48
10	266	Baseline			1	574	A1	Zahlen	r	49
10	363	Baseline			1	522	A1	Zahlen	r	50
10	275	Baseline			1	470	A1	Zahlen	r	51
10	447	Baseline			1	347	A1	Zahlen	r	52
10	291	Baseline			1	853	A2	Buchstaben	s	53
10	272	Baseline			1	507	A2	Buchstaben	r	54
10	205	Baseline			1	523	A2	Buchstaben	r	55
10	628	Baseline			1	536	A2	Buchstaben	r	56
10	290	Baseline			1	541	A2	Buchstaben	r	57
10	300	Baseline			1	543	A2	Buchstaben	r	58
10	374	Baseline			1	437	A1	Zahlen	s	59
10	364	Baseline			1	451	A1	Zahlen	r	60
10	182	Baseline			1	518	A1	Zahlen	r	61
10	384	Baseline			1	527	A1	Zahlen	r	62
10	321	Baseline			1	387	A1	Zahlen	r	63
10	313	Baseline			1	371	A1	Zahlen	r	64
10	250	Baseline			1	598	A2	Buchstaben	s	65
10	333	Baseline			1	502	A2	Buchstaben	r	66
10	246	Baseline			1	555	A2	Buchstaben	r	67
10	319	Baseline			1	593	A2	Buchstaben	r	68
10	245	Baseline			1	505	A2	Buchstaben	r	69
10	579	Baseline			1	546	A1	Zahlen	s	70
10	427	Baseline			1	583	A1	Zahlen	r	71
10	248	Baseline			1	509	A1	Zahlen	r	72
10	238	Baseline			1	483	A1	Zahlen	r	73
10	247	Baseline			1	444	A1	Zahlen	r	74
10	360	Baseline			1	727	A2	Buchstaben	s	75
10	221	Baseline			1	611	A2	Buchstaben	r	76
10	376	Baseline			1	463	A2	Buchstaben	r	77
10	241	Baseline			1	550	A2	Buchstaben	r	78
10	255	Baseline			0	427	A2	Buchstaben	r	79
10	1035	Baseline			1	566	A1	Zahlen	s	80
10	230	Baseline			1	548	A1	Zahlen	r	81
10	194	Baseline			1	529	A1	Zahlen	r	82
10	329	Baseline			1	506	A1	Zahlen	r	83
10	346	Baseline			1	530	A1	Zahlen	r	84
10	338	Baseline			1	595	A1	Zahlen	r	85
10	265	Baseline			1	532	A2	Buchstaben	s	86
10	228	Baseline			1	448	A2	Buchstaben	r	87
10	205	Baseline			1	603	A2	Buchstaben	r	88
10	296	Baseline			1	482	A2	Buchstaben	r	89
10	261	Baseline			1	545	A2	Buchstaben	r	90
10	360	Baseline			1	495	A2	Buchstaben	r	91
10	251	Baseline			1	560	A2	Buchstaben	r	92
10	70	Baseline			1	626	A2	Buchstaben	r	93
10	377	Baseline			1	560	A2	Buchstaben	r	94
10	519	Baseline			1	536	A2	Buchstaben	r	95
10	391	Baseline			1	549	A1	Zahlen	s	96
10	244	Baseline			1	489	A1	Zahlen	r	97
10	217	Baseline			1	439	A1	Zahlen	r	98
10	242	Baseline			1	527	A1	Zahlen	r	99
10	239	Baseline			1	396	A1	Zahlen	r	100
10	236	Baseline			0	505	A1	Zahlen	r	101
10	415	Baseline			1	540	A2	Buchstaben	s	102
10	893	Baseline			1	454	A2	Buchstaben	r	103
10	211	Baseline			1	489	A2	Buchstaben	r	104
10	421	Baseline			1	458	A2	Buchstaben	r	105
10	421	Baseline			1	554	A2	Buchstaben	r	106
10	291	Baseline			1	509	A2	Buchstaben	r	107
10	505	Baseline			1	491	A1	Zahlen	s	108
10	669	Baseline			1	599	A2	Buchstaben	s	109
10	374	Baseline			1	517	A2	Buchstaben	r	110
10	237	Baseline			1	467	A2	Buchstaben	r	111
10	6	Baseline			1	452	A2	Buchstaben	r	112
10	199	Baseline			1	478	A2	Buchstaben	r	113
10	192	Baseline			1	471	A2	Buchstaben	r	114
10	211	Baseline			1	369	A2	Buchstaben	r	115
10	226	Baseline			1	599	A1	Zahlen	s	116
10	203	Baseline			1	545	A1	Zahlen	r	117
10	59	Baseline			1	783	A1	Zahlen	r	118
10	251	Baseline			1	424	A1	Zahlen	r	119
10	286	Baseline			1	481	A1	Zahlen	r	120
10	283	Baseline			1	494	A1	Zahlen	r	121
10	409	Baseline			1	551	A1	Zahlen	r	122
10	329	Baseline			1	578	A2	Buchstaben	s	123
10	497	Baseline			1	635	A2	Buchstaben	r	124
10	343	Baseline			1	439	A2	Buchstaben	r	125
10	217	Baseline			1	431	A2	Buchstaben	r	126
10	222	Baseline			1	451	A2	Buchstaben	r	127
10	247	Baseline			1	459	A2	Buchstaben	r	128
10	183	Baseline			1	463	A2	Buchstaben	r	129
10	242	Baseline			1	493	A2	Buchstaben	r	130
10	287	Baseline			0	515	A1	Zahlen	s	131
10	222	Baseline			1	475	A1	Zahlen	r	132
10	255	Baseline			1	475	A1	Zahlen	r	133
10	92	Baseline			1	527	A1	Zahlen	r	134
10	401	Baseline			1	479	A1	Zahlen	r	135
10	275	Baseline			1	494	A1	Zahlen	r	136
10	264	Baseline			1	492	A1	Zahlen	r	137
10	296	Baseline			1	490	A1	Zahlen	r	138
10	355	Baseline			1	507	A1	Zahlen	r	139
10	261	Baseline			1	689	A1	Zahlen	r	140
10	242	Baseline			1	479	A1	Zahlen	r	141
10	241	Baseline			1	510	A2	Buchstaben	s	142
10	205	Baseline			1	459	A2	Buchstaben	r	143
10	279	Baseline			1	562	A2	Buchstaben	r	144
10		Baseline			1	1278	A1	Zahlen	NaN	1
10	278	Baseline			1	586	A1	Zahlen	r	2
10	272	Baseline			0	467	A1	Zahlen	r	3
10	367	Baseline			1	687	A2	Buchstaben	s	4
10	575	Baseline			1	517	A2	Buchstaben	r	5
10	488	Baseline			1	515	A2	Buchstaben	r	6
10	324	Baseline			1	469	A2	Buchstaben	r	7
10	138	Baseline			1	483	A2	Buchstaben	r	8
10	248	Baseline			1	660	A1	Zahlen	s	9
10	216	Baseline			1	422	A1	Zahlen	r	10
10	377	Baseline			1	480	A1	Zahlen	r	11
10	242	Baseline			1	567	A2	Buchstaben	s	12
10	214	Baseline			1	436	A2	Buchstaben	r	13
10	415	Baseline			1	781	A2	Buchstaben	r	14
10	213	Baseline			1	523	A2	Buchstaben	r	15
10	219	Baseline			0	449	A2	Buchstaben	r	16
10	412	Baseline			0	610	A2	Buchstaben	r	17
10	343	Baseline			1	680	A1	Zahlen	s	18
10	220	Baseline			1	538	A1	Zahlen	r	19
10	304	Baseline			1	514	A1	Zahlen	r	20
10	316	Baseline			1	526	A1	Zahlen	r	21
10	247	Baseline			1	476	A1	Zahlen	r	22
10	271	Baseline			1	443	A1	Zahlen	r	23
10	278	Baseline			1	721	A1	Zahlen	r	24
10	936	Baseline			1	607	A2	Buchstaben	s	25
10	211	Baseline			1	617	A2	Buchstaben	r	26
10	406	Baseline			1	556	A2	Buchstaben	r	27
10	204	Baseline			1	499	A2	Buchstaben	r	28
10	419	Baseline			1	505	A2	Buchstaben	r	29
10	210	Baseline			1	456	A2	Buchstaben	r	30
10	294	Baseline			1	561	A1	Zahlen	s	31
10	217	Baseline			1	479	A1	Zahlen	r	32
10	241	Baseline			1	430	A1	Zahlen	r	33
10	276	Baseline			1	519	A1	Zahlen	r	34
10	96	Baseline			1	435	A1	Zahlen	r	35
10	312	Baseline			1	465	A1	Zahlen	r	36
10	348	Baseline			1	573	A2	Buchstaben	s	37
10	243	Baseline			1	448	A2	Buchstaben	r	38
10	244	Baseline			1	497	A2	Buchstaben	r	39
10	236	Baseline			1	505	A2	Buchstaben	r	40
10	276	Baseline			1	471	A2	Buchstaben	r	41
10	242	Baseline			1	382	A2	Buchstaben	r	42
10	213	Baseline			1	459	A2	Buchstaben	r	43
10	238	Baseline			1	659	A2	Buchstaben	r	44
10	294	Baseline			1	465	A1	Zahlen	s	45
10	341	Baseline			1	429	A1	Zahlen	r	46
10	244	Baseline			1	553	A1	Zahlen	r	47
10	223	Baseline			1	508	A1	Zahlen	r	48
10	374	Baseline			1	525	A1	Zahlen	r	49
10	244	Baseline			0	513	A1	Zahlen	r	50
10	890	Baseline			1	515	A2	Buchstaben	s	51
10	349	Baseline			0	398	A2	Buchstaben	r	52
10	329	Baseline			1	562	A2	Buchstaben	r	53
10	208	Baseline			1	862	A2	Buchstaben	r	54
10	233	Baseline			1	470	A2	Buchstaben	r	55
10	223	Baseline			1	516	A2	Buchstaben	r	56
10	342	Baseline			1	510	A1	Zahlen	s	57
10	264	Baseline			1	524	A1	Zahlen	r	58
10	211	Baseline			1	561	A1	Zahlen	r	59
10	256	Baseline			1	492	A1	Zahlen	r	60
10	254	Baseline			1	523	A1	Zahlen	r	61
10	323	Baseline			1	475	A1	Zahlen	r	62
10	246	Baseline			1	508	A2	Buchstaben	s	63
10	196	Baseline			1	499	A2	Buchstaben	r	64
10	255	Baseline			1	458	A2	Buchstaben	r	65
10	221	Baseline			1	506	A2	Buchstaben	r	66
10	229	Baseline			1	466	A2	Buchstaben	r	67
10	198	Baseline			1	429	A2	Buchstaben	r	68
10	227	Baseline			1	600	A2	Buchstaben	r	69
10	256	Baseline			1	476	A1	Zahlen	s	70
10	176	Baseline			1	456	A1	Zahlen	r	71
10	170	Baseline			1	498	A1	Zahlen	r	72
10	252	Baseline			1	457	A1	Zahlen	r	73
10	331	Baseline			1	444	A1	Zahlen	r	74
10	337	Baseline			1	522	A1	Zahlen	r	75
10	266	Baseline			1	542	A2	Buchstaben	s	76
10	199	Baseline			1	494	A2	Buchstaben	r	77
10	354	Baseline			1	443	A2	Buchstaben	r	78
10	93	Baseline			1	512	A2	Buchstaben	r	79
10	314	Baseline			1	468	A2	Buchstaben	r	80
10	365	Baseline			1	477	A2	Buchstaben	r	81
10	278	Baseline			1	465	A2	Buchstaben	r	82
10	443	Baseline			1	551	A1	Zahlen	s	83
10	240	Baseline			1	588	A1	Zahlen	r	84
10	265	Baseline			1	477	A1	Zahlen	r	85
10	246	Baseline			1	506	A1	Zahlen	r	86
10	261	Baseline			1	465	A1	Zahlen	r	87
10	230	Baseline			1	547	A1	Zahlen	r	88
10	171	Baseline			1	467	A1	Zahlen	r	89
10	224	Baseline			1	286	A1	Zahlen	r	90
10	320	Baseline			1	450	A1	Zahlen	r	91
10	223	Baseline			1	636	A1	Zahlen	r	92
10	401	Baseline			1	536	A2	Buchstaben	s	93
10	470	Baseline			1	410	A2	Buchstaben	r	94
10	239	Baseline			1	380	A2	Buchstaben	r	95
10	186	Baseline			1	337	A2	Buchstaben	r	96
10	233	Baseline			1	422	A2	Buchstaben	r	97
10	203	Baseline			1	474	A2	Buchstaben	r	98
10	252	Baseline			1	481	A2	Buchstaben	r	99
10	242	Baseline			1	583	A2	Buchstaben	r	100
10	380	Baseline			1	451	A2	Buchstaben	r	101
10	313	Baseline			1	498	A2	Buchstaben	r	102
10	363	Baseline			1	515	A2	Buchstaben	r	103
10	191	Baseline			1	533	A2	Buchstaben	r	104
10	199	Baseline			1	694	A2	Buchstaben	r	105
10	263	Baseline			1	555	A2	Buchstaben	r	106
10	929	Baseline			1	544	A1	Zahlen	s	107
10	243	Baseline			1	511	A1	Zahlen	r	108
10	223	Baseline			1	460	A1	Zahlen	r	109
10	202	Baseline			1	392	A1	Zahlen	r	110
10	312	Baseline			1	482	A1	Zahlen	r	111
10	270	Baseline			1	490	A1	Zahlen	r	112
10	246	Baseline			1	338	A1	Zahlen	r	113
10	321	Baseline			0	363	A1	Zahlen	r	114
10	268	Baseline			1	528	A2	Buchstaben	s	115
10	384	Baseline			1	495	A2	Buchstaben	r	116
10	41	Baseline			1	518	A2	Buchstaben	r	117
10	239	Baseline			1	427	A2	Buchstaben	r	118
10	80	Baseline			1	468	A2	Buchstaben	r	119
10	239	Baseline			0	380	A2	Buchstaben	r	120
10	248	Baseline			1	540	A2	Buchstaben	r	121
10	246	Baseline			1	426	A2	Buchstaben	r	122
10	241	Baseline			1	573	A2	Buchstaben	r	123
10	322	Baseline			1	467	A1	Zahlen	s	124
10	269	Baseline			1	353	A1	Zahlen	r	125
10	211	Baseline			1	465	A1	Zahlen	r	126
10	234	Baseline			1	439	A1	Zahlen	r	127
10	250	Baseline			1	455	A1	Zahlen	r	128
10	314	Baseline			1	467	A1	Zahlen	r	129
10	239	Baseline			1	900	A1	Zahlen	r	130
10	435	Baseline			1	568	A2	Buchstaben	s	131
10	328	Baseline			1	505	A2	Buchstaben	r	132
10	252	Baseline			1	536	A2	Buchstaben	r	133
10	240	Baseline			1	588	A2	Buchstaben	r	134
10	497	Baseline			1	523	A2	Buchstaben	r	135
10	506	Baseline			1	443	A2	Buchstaben	r	136
10	409	Baseline			1	559	A2	Buchstaben	r	137
10	358	Baseline			1	534	A2	Buchstaben	r	138
10	502	Baseline			1	504	A2	Buchstaben	r	139
10	570	Baseline			1	537	A2	Buchstaben	r	140
10	354	Baseline			1	490	A2	Buchstaben	r	141
10	260	Baseline			1	416	A2	Buchstaben	r	142
10	392	Baseline			0	398	A1	Zahlen	s	143
10	227	Baseline			1	513	A1	Zahlen	r	144
10		Test	1	0	1	926	A2	Buchstaben	NaN	1
10	2083	Test	1	1	1	537	A2	Buchstaben	r	2
10	839	Test	2	2	0	691	A2	Buchstaben	r	3
10	702	Test	2	3	1	480	A2	Buchstaben	r	4
10	1241	Test	1	4	1	443	A1	Zahlen	s	5
10	549	Test	2	2	1	453	A1	Zahlen	r	6
10	391	Test	2	3	1	397	A1	Zahlen	r	7
10	443	Test	1	4	1	543	A1	Zahlen	r	8
10	247	Test	1	1	0	452	A1	Zahlen	r	9
10	367	Test	2	2	1	446	A2	Buchstaben	s	10
10	412	Test	2	3	1	929	A2	Buchstaben	r	11
10	1281	Test	1	4	1	498	A2	Buchstaben	r	12
10	403	Test	1	1	1	401	A2	Buchstaben	r	13
10	373	Test	2	2	1	436	A2	Buchstaben	r	14
10	394	Test	2	3	1	432	A2	Buchstaben	r	15
10	254	Test	2	3	1	507	A2	Buchstaben	r	16
10	396	Test	1	4	1	922	A1	Zahlen	s	17
10	371	Test	1	1	1	506	A1	Zahlen	r	18
10	404	Test	1	1	1	395	A1	Zahlen	r	19
10	338	Test	1	1	1	442	A1	Zahlen	r	20
10	276	Test	1	1	1	488	A1	Zahlen	r	21
10	257	Test	2	2	1	477	A1	Zahlen	r	22
10	831	Test	1	4	1	498	A2	Buchstaben	s	23
10	517	Test	1	1	1	462	A2	Buchstaben	r	24
10	2251	Test	2	2	1	426	A2	Buchstaben	r	25
10	278	Test	1	4	0	441	A2	Buchstaben	r	26
10	2047	Test	2	2	1	727	A1	Zahlen	s	27
10	333	Test	1	4	1	414	A1	Zahlen	r	28
10	292	Test	2	2	1	526	A1	Zahlen	r	29
10	335	Test	1	4	1	424	A1	Zahlen	r	30
10	339	Test	2	2	1	467	A1	Zahlen	r	31
10	1896	Test	2	3	1	406	A1	Zahlen	r	32
10	339	Test	2	3	1	355	A1	Zahlen	r	33
10	556	Test	2	3	1	451	A1	Zahlen	r	34
10	287	Test	2	3	1	426	A1	Zahlen	r	35
10	361	Test	2	3	1	417	A1	Zahlen	r	36
10	421	Test	1	4	0	370	A1	Zahlen	r	37
10	327	Test	2	2	1	447	A2	Buchstaben	s	38
10	284	Test	2	3	1	455	A2	Buchstaben	r	39
10	379	Test	2	3	1	450	A2	Buchstaben	r	40
10	724	Test	1	4	0	396	A2	Buchstaben	r	41
10	290	Test	1	1	1	653	A2	Buchstaben	r	42
10	294	Test	2	2	1	440	A2	Buchstaben	r	43
10	325	Test	1	4	0	398	A2	Buchstaben	r	44
10	206	Test	1	1	1	612	A2	Buchstaben	r	45
10	568	Test	2	2	1	511	A2	Buchstaben	r	46
10	231	Test	1	4	1	525	A2	Buchstaben	r	47
10	271	Test	2	2	1	507	A2	Buchstaben	r	48
10	390	Test	2	3	1	556	A1	Zahlen	s	49
10	212	Test	1	4	1	426	A1	Zahlen	r	50
10	367	Test	2	2	1	383	A1	Zahlen	r	51
10	332	Test	2	3	1	517	A1	Zahlen	r	52
10	244	Test	1	4	0	465	A1	Zahlen	r	53
10	291	Test	1	1	1	381	A1	Zahlen	r	54
10	325	Test	2	2	1	462	A1	Zahlen	r	55
10	249	Test	1	4	1	494	A1	Zahlen	r	56
10	257	Test	1	1	1	389	A1	Zahlen	r	57
10	253	Test	1	1	1	369	A1	Zahlen	r	58
10	314	Test	1	1	1	435	A1	Zahlen	r	59
10	221	Test	1	1	1	531	A1	Zahlen	r	60
10	307	Test	1	1	1	501	A2	Buchstaben	s	61
10	358	Test	2	2	0	373	A2	Buchstaben	r	62
10	274	Test	2	3	1	517	A2	Buchstaben	r	63
10	261	Test	1	4	1	529	A2	Buchstaben	r	64
10	275	Test	1	1	1	438	A2	Buchstaben	r	65
10	258	Test	1	1	1	478	A2	Buchstaben	r	66
10	183	Test	1	1	1	511	A2	Buchstaben	r	67
10	120	Test	2	2	0	514	A2	Buchstaben	r	68
10	269	Test	1	4	1	417	A2	Buchstaben	r	69
10	230	Test	1	1	1	411	A2	Buchstaben	r	70
10	224	Test	1	1	1	461	A2	Buchstaben	r	71
10	353	Test	2	2	1	562	A1	Zahlen	s	72
10	409	Test	2	3	1	550	A1	Zahlen	r	73
10	356	Test	1	4	1	412	A1	Zahlen	r	74
10	323	Test	2	2	1	444	A1	Zahlen	r	75
10	401	Test	2	3	1	456	A1	Zahlen	r	76
10	793	Test	2	3	1	486	A1	Zahlen	r	77
10	371	Test	2	3	1	514	A1	Zahlen	r	78
10	274	Test	1	4	0	478	A1	Zahlen	r	79
10	377	Test	2	2	1	696	A2	Buchstaben	s	80
10	290	Test	1	4	1	621	A2	Buchstaben	r	81
10	343	Test	1	1	1	616	A2	Buchstaben	r	82
10	435	Test	1	1	1	512	A2	Buchstaben	r	83
10	276	Test	2	2	1	455	A2	Buchstaben	r	84
10	305	Test	2	3	1	483	A2	Buchstaben	r	85
10	219	Test	1	4	1	393	A2	Buchstaben	r	86
10	462	Test	1	1	1	433	A1	Zahlen	s	87
10	268	Test	2	2	1	392	A1	Zahlen	r	88
10	244	Test	2	3	1	409	A1	Zahlen	r	89
10	255	Test	2	3	1	411	A1	Zahlen	r	90
10	255	Test	1	4	0	443	A1	Zahlen	r	91
10	104	Test	1	1	1	467	A1	Zahlen	r	92
10	207	Test	2	2	0	461	A1	Zahlen	r	93
10	255	Test	2	3	1	451	A1	Zahlen	r	94
10	328	Test	2	3	0	457	A1	Zahlen	r	95
10	184	Test	1	4	1	503	A1	Zahlen	r	96
10	234	Test	2	2	1	439	A1	Zahlen	r	97
10	314	Test	2	3	1	412	A1	Zahlen	r	98
10	274	Test	2	3	0	381	A1	Zahlen	r	99
10	1002	Test	1	4	1	461	A2	Buchstaben	s	100
10	296	Test	2	2	1	483	A2	Buchstaben	r	101
10	246	Test	2	3	0	443	A2	Buchstaben	r	102
10	120	Test	1	4	1	530	A2	Buchstaben	r	103
10	329	Test	1	1	1	450	A2	Buchstaben	r	104
10	252	Test	2	2	1	377	A2	Buchstaben	r	105
10	312	Test	2	3	1	442	A2	Buchstaben	r	106
10	280	Test	2	3	1	499	A2	Buchstaben	r	107
10	211	Test	2	3	1	409	A2	Buchstaben	r	108
10	246	Test	1	4	1	506	A2	Buchstaben	r	109
10	267	Test	1	1	1	503	A2	Buchstaben	r	110
10	314	Test	1	1	1	540	A2	Buchstaben	r	111
10	364	Test	2	2	1	404	A2	Buchstaben	r	112
10	288	Test	2	3	0	403	A2	Buchstaben	r	113
10	538	Test	1	4	1	579	A2	Buchstaben	r	114
10	416	Test	1	1	0	365	A2	Buchstaben	r	115
10	278	Test	1	1	1	609	A1	Zahlen	s	116
10	351	Test	2	2	1	455	A1	Zahlen	r	117
10	314	Test	2	3	1	483	A1	Zahlen	r	118
10	317	Test	2	3	1	479	A1	Zahlen	r	119
10	434	Test	1	4	1	486	A1	Zahlen	r	120
10	234	Test	2	2	0	343	A1	Zahlen	r	121
10	74	Test	1	4	1	542	A1	Zahlen	r	122
10	302	Test	2	2	1	328	A1	Zahlen	r	123
10	311	Test	1	4	0	473	A1	Zahlen	r	124
10	262	Test	2	2	1	466	A1	Zahlen	r	125
10	470	Test	1	4	1	490	A2	Buchstaben	s	126
10	275	Test	1	1	1	510	A2	Buchstaben	r	127
10	336	Test	1	1	1	473	A2	Buchstaben	r	128
10	309	Test	1	1	1	503	A2	Buchstaben	r	129
10	350	Test	2	2	0	527	A2	Buchstaben	r	130
10	373	Test	2	3	1	428	A2	Buchstaben	r	131
10	343	Test	2	3	1	432	A2	Buchstaben	r	132
10	430	Test	1	4	1	450	A2	Buchstaben	r	133
10	239	Test	1	1	1	579	A2	Buchstaben	r	134
10	329	Test	2	2	1	506	A2	Buchstaben	r	135
10	373	Test	1	4	0	468	A2	Buchstaben	r	136
10	391	Test	1	1	1	565	A1	Zahlen	s	137
10	245	Test	1	1	1	473	A1	Zahlen	r	138
10	261	Test	2	2	1	737	A1	Zahlen	r	139
10	248	Test	1	4	1	501	A1	Zahlen	r	140
10	180	Test	2	2	1	548	A1	Zahlen	r	141
10	219	Test	2	3	1	513	A1	Zahlen	r	142
10	293	Test	1	4	1	471	A1	Zahlen	r	143
10	228	Test	2	2	0	441	A1	Zahlen	r	144
10	708	Test	1	4	1	477	A1	Zahlen	r	145
10	296	Test	2	2	1	395	A1	Zahlen	r	146
10	295	Test	1	4	1	410	A1	Zahlen	r	147
10	249	Test	1	1	1	493	A1	Zahlen	r	148
10	278	Test	2	2	1	425	A1	Zahlen	r	149
10	332	Test	1	4	1	533	A2	Buchstaben	s	150
10	651	Test	1	1	1	583	A2	Buchstaben	r	151
10	262	Test	1	1	1	434	A2	Buchstaben	r	152
10	343	Test	2	2	1	415	A2	Buchstaben	r	153
10	524	Test	2	3	1	509	A2	Buchstaben	r	154
10	3919	Test	2	3	1	526	A2	Buchstaben	r	155
10	241	Test	1	4	1	478	A2	Buchstaben	r	156
10	282	Test	2	2	1	454	A2	Buchstaben	r	157
10	227	Test	1	4	1	392	A2	Buchstaben	r	158
10	271	Test	2	2	1	467	A2	Buchstaben	r	159
10	988	Test	2	3	1	569	A2	Buchstaben	r	160
10		Test	1	0	1	772	A2	Buchstaben	NaN	1
10	292	Test	1	1	1	478	A2	Buchstaben	r	2
10	331	Test	2	2	1	388	A2	Buchstaben	r	3
10	283	Test	2	3	1	406	A2	Buchstaben	r	4
10	243	Test	1	4	0	344	A2	Buchstaben	r	5
10	245	Test	2	2	1	402	A2	Buchstaben	r	6
10	312	Test	2	3	1	345	A2	Buchstaben	r	7
10	631	Test	1	4	1	515	A1	Zahlen	s	8
10	1947	Test	1	1	1	463	A1	Zahlen	r	9
10	354	Test	2	2	0	402	A1	Zahlen	r	10
10	298	Test	2	3	1	500	A1	Zahlen	r	11
10	1064	Test	1	4	1	561	A2	Buchstaben	s	12
10	313	Test	1	1	1	715	A2	Buchstaben	r	13
10	380	Test	2	2	1	411	A2	Buchstaben	r	14
10	272	Test	2	3	1	467	A2	Buchstaben	r	15
10	452	Test	2	3	1	400	A2	Buchstaben	r	16
10	256	Test	1	4	1	467	A2	Buchstaben	r	17
10	263	Test	1	1	1	379	A2	Buchstaben	r	18
10	289	Test	1	1	1	443	A2	Buchstaben	r	19
10	231	Test	1	1	1	452	A2	Buchstaben	r	20
10	265	Test	1	1	1	389	A2	Buchstaben	r	21
10	324	Test	2	2	1	389	A2	Buchstaben	r	22
10	277	Test	1	4	1	496	A2	Buchstaben	r	23
10	242	Test	1	1	1	495	A2	Buchstaben	r	24
10	305	Test	2	2	1	387	A2	Buchstaben	r	25
10	282	Test	1	4	1	429	A2	Buchstaben	r	26
10	242	Test	2	2	1	478	A2	Buchstaben	r	27
10	383	Test	1	4	1	438	A1	Zahlen	s	28
10	713	Test	2	2	1	378	A1	Zahlen	r	29
10	338	Test	1	4	1	396	A1	Zahlen	r	30
10	476	Test	2	2	1	358	A1	Zahlen	r	31
10	230	Test	2	3	1	402	A1	Zahlen	r	32
10	234	Test	2	3	1	416	A1	Zahlen	r	33
10	254	Test	2	3	1	483	A1	Zahlen	r	34
10	243	Test	2	3	1	432	A1	Zahlen	r	35
10	356	Test	2	3	1	444	A1	Zahlen	r	36
10	350	Test	1	4	0	398	A1	Zahlen	r	37
10	1229	Test	2	2	1	455	A1	Zahlen	r	38
10	292	Test	2	3	1	431	A1	Zahlen	r	39
10	421	Test	2	3	1	458	A1	Zahlen	r	40
10	500	Test	1	4	1	446	A2	Buchstaben	s	41
10	339	Test	1	1	1	380	A2	Buchstaben	r	42
10	380	Test	2	2	1	467	A2	Buchstaben	r	43
10	614	Test	1	4	1	443	A2	Buchstaben	r	44
10	265	Test	1	1	0	373	A2	Buchstaben	r	45
10	397	Test	2	2	1	419	A2	Buchstaben	r	46
10	271	Test	1	4	1	483	A2	Buchstaben	r	47
10	270	Test	2	2	1	402	A2	Buchstaben	r	48
10	255	Test	2	3	1	571	A2	Buchstaben	r	49
10	266	Test	1	4	1	478	A2	Buchstaben	r	50
10	465	Test	2	2	1	412	A2	Buchstaben	r	51
10	283	Test	2	3	1	382	A2	Buchstaben	r	52
10	242	Test	1	4	1	416	A2	Buchstaben	r	53
10	274	Test	1	1	1	373	A2	Buchstaben	r	54
10	294	Test	2	2	1	369	A2	Buchstaben	r	55
10	297	Test	1	4	0	356	A1	Zahlen	s	56
10	233	Test	1	1	1	454	A1	Zahlen	r	57
10	241	Test	1	1	1	390	A1	Zahlen	r	58
10	268	Test	1	1	1	384	A1	Zahlen	r	59
10	296	Test	1	1	0	394	A1	Zahlen	r	60
10	230	Test	1	1	1	411	A1	Zahlen	r	61
10	256	Test	2	2	1	388	A1	Zahlen	r	62
10	282	Test	2	3	1	413	A1	Zahlen	r	63
10	336	Test	1	4	1	441	A1	Zahlen	r	64
10	342	Test	1	1	1	390	A1	Zahlen	r	65
10	127	Test	1	1	1	504	A2	Buchstaben	s	66
10	403	Test	1	1	0	474	A2	Buchstaben	r	67
10	1338	Test	2	2	1	432	A2	Buchstaben	r	68
10	258	Test	1	4	1	454	A2	Buchstaben	r	69
10	394	Test	1	1	1	496	A2	Buchstaben	r	70
10	377	Test	1	1	1	392	A2	Buchstaben	r	71
10	816	Test	2	2	1	404	A2	Buchstaben	r	72
10	459	Test	2	3	0	342	A2	Buchstaben	r	73
10	297	Test	1	4	1	444	A2	Buchstaben	r	74
10	727	Test	2	2	0	359	A2	Buchstaben	r	75
10	313	Test	2	3	1	378	A2	Buchstaben	r	76
10	295	Test	2	3	1	442	A2	Buchstaben	r	77
10	286	Test	2	3	1	434	A2	Buchstaben	r	78
10	237	Test	1	4	1	875	A2	Buchstaben	r	79
10	276	Test	2	2	1	440	A2	Buchstaben	r	80
10	546	Test	1	4	1	458	A2	Buchstaben	r	81
10	371	Test	1	1	1	483	A1	Zahlen	s	82
10	254	Test	1	1	1	450	A1	Zahlen	r	83
10	349	Test	2	2	1	358	A1	Zahlen	r	84
10	230	Test	2	3	1	435	A1	Zahlen	r	85
10	207	Test	1	4	1	445	A1	Zahlen	r	86
10	312	Test	1	1	1	457	A1	Zahlen	r	87
10	332	Test	2	2	1	365	A1	Zahlen	r	88
10	267	Test	2	3	1	398	A1	Zahlen	r	89
10	5	Test	2	3	1	484	A1	Zahlen	r	90
10	439	Test	1	4	1	459	A2	Buchstaben	s	91
10	272	Test	1	1	1	580	A2	Buchstaben	r	92
10	266	Test	2	2	1	382	A2	Buchstaben	r	93
10	389	Test	2	3	1	468	A2	Buchstaben	r	94
10	372	Test	2	3	1	444	A2	Buchstaben	r	95
10	279	Test	1	4	1	450	A2	Buchstaben	r	96
10	284	Test	2	2	1	503	A2	Buchstaben	r	97
10	71	Test	2	3	1	499	A2	Buchstaben	r	98
10	276	Test	2	3	1	399	A2	Buchstaben	r	99
10	300	Test	1	4	1	582	A2	Buchstaben	r	100
10	245	Test	2	2	1	417	A2	Buchstaben	r	101
10	295	Test	2	3	1	458	A2	Buchstaben	r	102
10	540	Test	1	4	1	428	A1	Zahlen	s	103
10	298	Test	1	1	1	492	A1	Zahlen	r	104
10	614	Test	2	2	1	426	A1	Zahlen	r	105
10	344	Test	2	3	1	512	A1	Zahlen	r	106
10	271	Test	2	3	1	403	A1	Zahlen	r	107
10	450	Test	2	3	1	478	A1	Zahlen	r	108
10	289	Test	1	4	1	531	A2	Buchstaben	s	109
10	261	Test	1	1	1	449	A2	Buchstaben	r	110
10	347	Test	1	1	0	387	A2	Buchstaben	r	111
10	781	Test	2	2	1	419	A2	Buchstaben	r	112
10	807	Test	2	3	1	427	A2	Buchstaben	r	113
10	834	Test	1	4	1	549	A2	Buchstaben	r	114
10	702	Test	1	1	1	400	A2	Buchstaben	r	115
10	500	Test	1	1	0	486	A2	Buchstaben	r	116
10	305	Test	2	2	1	434	A2	Buchstaben	r	117
10	238	Test	2	3	1	443	A2	Buchstaben	r	118
10	241	Test	2	3	1	381	A2	Buchstaben	r	119
10	356	Test	1	4	1	404	A1	Zahlen	s	120
10	656	Test	2	2	1	355	A1	Zahlen	r	121
10	373	Test	1	4	0	411	A1	Zahlen	r	122
10	277	Test	2	2	1	432	A1	Zahlen	r	123
10	317	Test	1	4	1	406	A1	Zahlen	r	124
10	278	Test	2	2	1	369	A1	Zahlen	r	125
10	225	Test	1	4	1	518	A1	Zahlen	r	126
10	343	Test	1	1	0	335	A1	Zahlen	r	127
10	646	Test	1	1	1	441	A2	Buchstaben	s	128
10	269	Test	1	1	0	361	A2	Buchstaben	r	129
10	17	Test	2	2	1	583	A2	Buchstaben	r	130
10	439	Test	2	3	0	371	A2	Buchstaben	r	131
10	939	Test	2	3	1	402	A2	Buchstaben	r	132
10	281	Test	1	4	0	420	A2	Buchstaben	r	133
10	1031	Test	1	1	1	386	A2	Buchstaben	r	134
10	95	Test	2	2	1	553	A2	Buchstaben	r	135
10	785	Test	1	4	1	503	A1	Zahlen	s	136
10	216	Test	1	1	1	454	A1	Zahlen	r	137
10	209	Test	1	1	1	431	A1	Zahlen	r	138
10	358	Test	2	2	1	469	A1	Zahlen	r	139
10	272	Test	1	4	1	476	A1	Zahlen	r	140
10	1063	Test	2	2	1	377	A1	Zahlen	r	141
10	303	Test	2	3	1	561	A1	Zahlen	r	142
10	336	Test	1	4	1	529	A2	Buchstaben	s	143
10	680	Test	2	2	0	434	A2	Buchstaben	r	144
10	301	Test	1	4	1	535	A2	Buchstaben	r	145
10	317	Test	2	2	1	431	A2	Buchstaben	r	146
10	315	Test	1	4	1	436	A2	Buchstaben	r	147
10	271	Test	1	1	1	515	A2	Buchstaben	r	148
10	307	Test	2	2	0	380	A2	Buchstaben	r	149
10	240	Test	1	4	1	557	A2	Buchstaben	r	150
10	917	Test	1	1	1	357	A1	Zahlen	s	151
10	254	Test	1	1	1	443	A1	Zahlen	r	152
10	422	Test	2	2	1	571	A1	Zahlen	r	153
10	328	Test	2	3	1	409	A1	Zahlen	r	154
10	335	Test	2	3	1	407	A1	Zahlen	r	155
10	286	Test	1	4	1	456	A1	Zahlen	r	156
10	307	Test	2	2	1	453	A1	Zahlen	r	157
10	280	Test	1	4	1	467	A1	Zahlen	r	158
10	550	Test	2	2	1	413	A1	Zahlen	r	159
10	226	Test	2	3	1	383	A1	Zahlen	r	160
10		Test	1	0	1	811	A2	Buchstaben	NaN	1
10	510	Test	1	1	0	376	A2	Buchstaben	r	2
10	533	Test	2	2	1	462	A2	Buchstaben	r	3
10	287	Test	2	3	1	410	A2	Buchstaben	r	4
10	590	Test	1	4	1	443	A2	Buchstaben	r	5
10	281	Test	2	2	1	379	A2	Buchstaben	r	6
10	298	Test	2	3	0	364	A2	Buchstaben	r	7
10	466	Test	1	4	0	365	A1	Zahlen	s	8
10	542	Test	1	1	1	422	A1	Zahlen	r	9
10	386	Test	2	2	1	409	A1	Zahlen	r	10
10	312	Test	2	3	1	450	A1	Zahlen	r	11
10	253	Test	1	4	1	402	A1	Zahlen	r	12
10	256	Test	1	1	1	404	A1	Zahlen	r	13
10	236	Test	2	2	1	409	A1	Zahlen	r	14
10	257	Test	2	3	1	469	A1	Zahlen	r	15
10	255	Test	2	3	1	363	A1	Zahlen	r	16
10	554	Test	1	4	1	458	A2	Buchstaben	s	17
10	301	Test	1	1	1	383	A2	Buchstaben	r	18
10	253	Test	1	1	1	410	A2	Buchstaben	r	19
10	255	Test	1	1	1	491	A2	Buchstaben	r	20
10	220	Test	1	1	1	418	A2	Buchstaben	r	21
10	493	Test	2	2	0	407	A2	Buchstaben	r	22
10	242	Test	1	4	1	543	A2	Buchstaben	r	23
10	247	Test	1	1	1	571	A2	Buchstaben	r	24
10	1284	Test	2	2	1	404	A2	Buchstaben	r	25
10	267	Test	1	4	1	552	A2	Buchstaben	r	26
10	271	Test	2	2	0	339	A2	Buchstaben	r	27
10	437	Test	1	4	1	490	A2	Buchstaben	r	28
10	226	Test	2	2	1	407	A2	Buchstaben	r	29
10	387	Test	1	4	1	466	A1	Zahlen	s	30
10	247	Test	2	2	1	363	A1	Zahlen	r	31
10	237	Test	2	3	1	394	A1	Zahlen	r	32
10	265	Test	2	3	1	349	A1	Zahlen	r	33
10	366	Test	2	3	1	430	A1	Zahlen	r	34
10	91	Test	2	3	1	470	A1	Zahlen	r	35
10	250	Test	2	3	1	494	A1	Zahlen	r	36
10	426	Test	1	4	1	503	A1	Zahlen	r	37
10	289	Test	2	2	1	387	A1	Zahlen	r	38
10	259	Test	2	3	1	447	A1	Zahlen	r	39
10	252	Test	2	3	1	417	A1	Zahlen	r	40
10	870	Test	1	4	1	608	A1	Zahlen	r	41
10	260	Test	1	1	1	432	A2	Buchstaben	s	42
10	244	Test	2	2	1	424	A2	Buchstaben	r	43
10	279	Test	1	4	1	482	A2	Buchstaben	r	44
10	483	Test	1	1	1	453	A2	Buchstaben	r	45
10	362	Test	2	2	1	369	A2	Buchstaben	r	46
10	256	Test	1	4	1	379	A2	Buchstaben	r	47
10	258	Test	2	2	1	461	A2	Buchstaben	r	48
10	306	Test	2	3	1	388	A2	Buchstaben	r	49
10	299	Test	1	4	1	485	A1	Zahlen	s	50
10	313	Test	2	2	1	355	A1	Zahlen	r	51
10	314	Test	2	3	1	404	A1	Zahlen	r	52
10	353	Test	1	4	1	450	A1	Zahlen	r	53
10	293	Test	1	1	1	512	A1	Zahlen	r	54
10	251	Test	2	2	1	359	A1	Zahlen	r	55
10	285	Test	1	4	1	425	A1	Zahlen	r	56
10	245	Test	1	1	1	393	A1	Zahlen	r	57
10	249	Test	1	1	0	381	A1	Zahlen	r	58
10	1386	Test	1	1	1	462	A2	Buchstaben	s	59
10	260	Test	1	1	1	463	A2	Buchstaben	r	60
10	330	Test	1	1	1	427	A2	Buchstaben	r	61
10	216	Test	2	2	0	390	A2	Buchstaben	r	62
10	253	Test	2	3	1	538	A2	Buchstaben	r	63
10	240	Test	1	4	0	469	A2	Buchstaben	r	64
10	260	Test	1	1	1	400	A2	Buchstaben	r	65
10	1037	Test	1	1	1	448	A2	Buchstaben	r	66
10	363	Test	1	1	1	507	A2	Buchstaben	r	67
10	261	Test	2	2	1	424	A2	Buchstaben	r	68
10	300	Test	1	4	1	390	A1	Zahlen	s	69
10	254	Test	1	1	1	443	A1	Zahlen	r	70
10	201	Test	1	1	1	655	A1	Zahlen	r	71
10	244	Test	2	2	1	409	A1	Zahlen	r	72
10	238	Test	2	3	1	627	A1	Zahlen	r	73
10	305	Test	1	4	1	507	A1	Zahlen	r	74
10	194	Test	2	2	1	489	A1	Zahlen	r	75
10	268	Test	2	3	1	376	A1	Zahlen	r	76
10	304	Test	2	3	1	538	A1	Zahlen	r	77
10	700	Test	2	3	1	341	A1	Zahlen	r	78
10	503	Test	1	4	1	489	A2	Buchstaben	s	79
10	257	Test	2	2	1	341	A2	Buchstaben	r	80
10	15	Test	1	4	1	542	A2	Buchstaben	r	81
10	262	Test	1	1	1	514	A2	Buchstaben	r	82
10	300	Test	1	1	1	415	A2	Buchstaben	r	83
10	380	Test	2	2	1	443	A2	Buchstaben	r	84
10	294	Test	2	3	1	377	A2	Buchstaben	r	85
10	310	Test	1	4	1	440	A2	Buchstaben	r	86
10	556	Test	1	1	0	411	A1	Zahlen	s	87
10	393	Test	2	2	1	487	A1	Zahlen	r	88
10	266	Test	2	3	1	479	A1	Zahlen	r	89
10	449	Test	2	3	1	388	A1	Zahlen	r	90
10	443	Test	1	4	1	583	A1	Zahlen	r	91
10	254	Test	1	1	1	491	A1	Zahlen	r	92
10	364	Test	2	2	1	419	A1	Zahlen	r	93
10	258	Test	2	3	1	422	A1	Zahlen	r	94
10	2042	Test	2	3	1	370	A1	Zahlen	r	95
10	329	Test	1	4	1	554	A1	Zahlen	r	96
10	586	Test	2	2	1	504	A1	Zahlen	r	97
10	1344	Test	2	3	1	349	A1	Zahlen	r	98
10	1036	Test	2	3	1	367	A1	Zahlen	r	99
10	367	Test	1	4	1	470	A1	Zahlen	r	100
10	961	Test	2	2	1	375	A1	Zahlen	r	101
10	316	Test	2	3	1	382	A1	Zahlen	r	102
10	573	Test	1	4	1	915	A2	Buchstaben	s	103
10	283	Test	1	1	1	518	A2	Buchstaben	r	104
10	1414	Test	2	2	0	345	A2	Buchstaben	r	105
10	241	Test	2	3	1	421	A2	Buchstaben	r	106
10	914	Test	2	3	1	474	A2	Buchstaben	r	107
10	671	Test	2	3	1	426	A2	Buchstaben	r	108
10	493	Test	1	4	1	462	A2	Buchstaben	r	109
10	226	Test	1	1	1	510	A2	Buchstaben	r	110
10	321	Test	1	1	1	586	A1	Zahlen	s	111
10	867	Test	2	2	1	341	A1	Zahlen	r	112
10	1006	Test	2	3	1	475	A1	Zahlen	r	113
10	399	Test	1	4	1	1141	A1	Zahlen	r	114
10	226	Test	1	1	1	464	A1	Zahlen	r	115
10	266	Test	1	1	1	958	A1	Zahlen	r	116
10	1021	Test	2	2	1	441	A1	Zahlen	r	117
10	1781	Test	2	3	1	520	A1	Zahlen	r	118
10	1607	Test	2	3	1	426	A1	Zahlen	r	119
10	301	Test	1	4	1	448	A1	Zahlen	r	120
10	813	Test	2	2	1	506	A1	Zahlen	r	121
10	437	Test	1	4	1	490	A1	Zahlen	r	122
10	1445	Test	2	2	1	478	A1	Zahlen	r	123
10	276	Test	1	4	1	535	A2	Buchstaben	s	124
10	774	Test	2	2	1	380	A2	Buchstaben	r	125
10	610	Test	1	4	1	455	A2	Buchstaben	r	126
10	300	Test	1	1	1	583	A2	Buchstaben	r	127
10	419	Test	1	1	1	537	A2	Buchstaben	r	128
10	281	Test	1	1	1	684	A2	Buchstaben	r	129
10	1460	Test	2	2	0	332	A2	Buchstaben	r	130
10	1008	Test	2	3	1	484	A2	Buchstaben	r	131
10	488	Test	2	3	1	394	A2	Buchstaben	r	132
10	408	Test	1	4	1	534	A1	Zahlen	s	133
10	268	Test	1	1	1	520	A1	Zahlen	r	134
10	1143	Test	2	2	1	309	A1	Zahlen	r	135
10	309	Test	1	4	1	415	A1	Zahlen	r	136
10	243	Test	1	1	1	487	A1	Zahlen	r	137
10	231	Test	1	1	1	421	A1	Zahlen	r	138
10	608	Test	2	2	1	237	A1	Zahlen	r	139
10	243	Test	1	4	1	359	A1	Zahlen	r	140
10	290	Test	2	2	1	356	A1	Zahlen	r	141
10	483	Test	2	3	1	373	A1	Zahlen	r	142
10	260	Test	1	4	1	400	A1	Zahlen	r	143
10	318	Test	2	2	1	432	A1	Zahlen	r	144
10	391	Test	1	4	1	485	A2	Buchstaben	s	145
10	390	Test	2	2	1	308	A2	Buchstaben	r	146
10	312	Test	1	4	1	338	A2	Buchstaben	r	147
10	393	Test	1	1	1	342	A2	Buchstaben	r	148
10	278	Test	2	2	0	305	A2	Buchstaben	r	149
10	307	Test	1	4	1	405	A1	Zahlen	s	150
10	155	Test	1	1	1	507	A1	Zahlen	r	151
10	244	Test	1	1	1	504	A1	Zahlen	r	152
10	498	Test	2	2	1	436	A1	Zahlen	r	153
10	288	Test	2	3	1	419	A1	Zahlen	r	154
10	280	Test	2	3	1	435	A1	Zahlen	r	155
10	342	Test	1	4	1	374	A1	Zahlen	r	156
10	244	Test	2	2	0	369	A1	Zahlen	r	157
10	239	Test	1	4	1	372	A1	Zahlen	r	158
10	241	Test	2	2	0	382	A1	Zahlen	r	159
10	417	Test	2	3	1	302	A1	Zahlen	r	160
11		Baseline			0	1277	A2	Buchstaben	NaN	1
11	524	Baseline			1	661	A1	Zahlen	s	2
11	425	Baseline			1	518	A2	Buchstaben	s	3
11	287	Baseline			1	498	A2	Buchstaben	r	4
11	364	Baseline			1	523	A2	Buchstaben	r	5
11	406	Baseline			1	611	A1	Zahlen	s	6
11	521	Baseline			1	706	A1	Zahlen	r	7
11	258	Baseline			1	374	A2	Buchstaben	s	8
11	517	Baseline			1	462	A2	Buchstaben	r	9
11	1131	Baseline			1	474	A1	Zahlen	s	10
11	359	Baseline			1	583	A1	Zahlen	r	11
11	412	Baseline			1	473	A2	Buchstaben	s	12
11	518	Baseline			0	463	A1	Zahlen	s	13
11	994	Baseline			1	487	A2	Buchstaben	s	14
11	322	Baseline			1	403	A2	Buchstaben	r	15
11	402	Baseline			1	560	A2	Buchstaben	r	16
11	439	Baseline			1	611	A1	Zahlen	s	17
11	358	Baseline			1	646	A1	Zahlen	r	18
11	616	Baseline			1	669	A1	Zahlen	r	19
11	274	Baseline			1	517	A2	Buchstaben	s	20
11	494	Baseline			1	632	A1	Zahlen	s	21
11	270	Baseline			1	834	A1	Zahlen	r	22
11	350	Baseline			1	495	A1	Zahlen	r	23
11	363	Baseline			1	667	A2	Buchstaben	s	24
11	350	Baseline			1	510	A1	Zahlen	s	25
11	1016	Baseline			1	715	A2	Buchstaben	s	26
11	410	Baseline			1	584	A2	Buchstaben	r	27
11	366	Baseline			1	558	A2	Buchstaben	r	28
11	900	Baseline			1	941	A1	Zahlen	s	29
11	469	Baseline			1	560	A1	Zahlen	r	30
11	329	Baseline			1	490	A2	Buchstaben	s	31
11	742	Baseline			1	517	A2	Buchstaben	r	32
11	398	Baseline			1	572	A2	Buchstaben	r	33
11	372	Baseline			1	579	A1	Zahlen	s	34
11	396	Baseline			1	522	A2	Buchstaben	s	35
11	291	Baseline			1	565	A2	Buchstaben	r	36
11	365	Baseline			1	572	A1	Zahlen	s	37
11	386	Baseline			1	673	A1	Zahlen	r	38
11	674	Baseline			1	548	A2	Buchstaben	s	39
11	316	Baseline			1	542	A2	Buchstaben	r	40
11	325	Baseline			1	422	A2	Buchstaben	r	41
11	549	Baseline			1	620	A1	Zahlen	s	42
11	1664	Baseline			1	584	A2	Buchstaben	s	43
11	622	Baseline			1	771	A1	Zahlen	s	44
11	259	Baseline			1	646	A1	Zahlen	r	45
11	284	Baseline			1	639	A2	Buchstaben	s	46
11	417	Baseline			1	511	A2	Buchstaben	r	47
11	313	Baseline			1	411	A2	Buchstaben	r	48
11	360	Baseline			1	487	A2	Buchstaben	r	49
11	352	Baseline			1	465	A1	Zahlen	s	50
11	379	Baseline			1	522	A2	Buchstaben	s	51
11	417	Baseline			1	654	A2	Buchstaben	r	52
11	418	Baseline			1	623	A2	Buchstaben	r	53
11	340	Baseline			1	468	A1	Zahlen	s	54
11	369	Baseline			1	481	A2	Buchstaben	s	55
11	363	Baseline			1	459	A1	Zahlen	s	56
11	293	Baseline			1	503	A1	Zahlen	r	57
11	338	Baseline			1	483	A1	Zahlen	r	58
11	478	Baseline			1	744	A2	Buchstaben	s	59
11	824	Baseline			0	628	A1	Zahlen	s	60
11	918	Baseline			1	574	A1	Zahlen	r	61
11	324	Baseline			1	405	A2	Buchstaben	s	62
11	356	Baseline			1	404	A2	Buchstaben	r	63
11	417	Baseline			1	447	A2	Buchstaben	r	64
11	666	Baseline			1	541	A1	Zahlen	s	65
11	643	Baseline			1	454	A2	Buchstaben	s	66
11	435	Baseline			1	463	A2	Buchstaben	r	67
11	729	Baseline			0	953	A1	Zahlen	s	68
11	1384	Baseline			0	492	A1	Zahlen	r	69
11	435	Baseline			1	688	A1	Zahlen	r	70
11	336	Baseline			1	689	A2	Buchstaben	s	71
11	1890	Baseline			1	561	A2	Buchstaben	r	72
11	648	Baseline			1	524	A1	Zahlen	s	73
11	387	Baseline			1	432	A1	Zahlen	r	74
11	1167	Baseline			1	588	A2	Buchstaben	s	75
11	1362	Baseline			1	662	A1	Zahlen	s	76
11	860	Baseline			1	486	A2	Buchstaben	s	77
11	642	Baseline			1	566	A2	Buchstaben	r	78
11	493	Baseline			1	439	A2	Buchstaben	r	79
11	355	Baseline			1	611	A1	Zahlen	s	80
11	311	Baseline			1	681	A1	Zahlen	r	81
11	409	Baseline			1	518	A2	Buchstaben	s	82
11	432	Baseline			1	669	A1	Zahlen	s	83
11	495	Baseline			1	489	A2	Buchstaben	s	84
11	322	Baseline			0	387	A1	Zahlen	s	85
11	860	Baseline			1	582	A2	Buchstaben	s	86
11	478	Baseline			1	569	A2	Buchstaben	r	87
11	626	Baseline			1	534	A1	Zahlen	s	88
11	497	Baseline			1	523	A1	Zahlen	r	89
11	547	Baseline			1	570	A2	Buchstaben	s	90
11	528	Baseline			1	457	A1	Zahlen	s	91
11	404	Baseline			1	562	A1	Zahlen	r	92
11	411	Baseline			1	616	A2	Buchstaben	s	93
11	333	Baseline			0	415	A1	Zahlen	s	94
11	406	Baseline			1	628	A2	Buchstaben	s	95
11	617	Baseline			1	638	A2	Buchstaben	r	96
11	400	Baseline			1	606	A1	Zahlen	s	97
11	421	Baseline			1	530	A1	Zahlen	r	98
11	508	Baseline			1	533	A2	Buchstaben	s	99
11	462	Baseline			0	489	A1	Zahlen	s	100
11	547	Baseline			1	811	A2	Buchstaben	s	101
11	488	Baseline			1	578	A1	Zahlen	s	102
11	1114	Baseline			1	698	A2	Buchstaben	s	103
11	429	Baseline			0	682	A1	Zahlen	s	104
11	334	Baseline			1	623	A2	Buchstaben	s	105
11	613	Baseline			1	569	A2	Buchstaben	r	106
11	402	Baseline			1	656	A2	Buchstaben	r	107
11	468	Baseline			1	703	A1	Zahlen	s	108
11	305	Baseline			1	467	A1	Zahlen	r	109
11	719	Baseline			1	415	A1	Zahlen	r	110
11	623	Baseline			1	612	A2	Buchstaben	s	111
11	295	Baseline			1	426	A2	Buchstaben	r	112
11	551	Baseline			1	495	A1	Zahlen	s	113
11	473	Baseline			1	516	A2	Buchstaben	s	114
11	427	Baseline			1	760	A1	Zahlen	s	115
11	713	Baseline			1	537	A2	Buchstaben	s	116
11	305	Baseline			1	451	A2	Buchstaben	r	117
11	493	Baseline			1	439	A2	Buchstaben	r	118
11	290	Baseline			1	389	A1	Zahlen	s	119
11	434	Baseline			1	671	A2	Buchstaben	s	120
11	435	Baseline			1	528	A1	Zahlen	s	121
11	858	Baseline			1	516	A2	Buchstaben	s	122
11	524	Baseline			0	468	A1	Zahlen	s	123
11	519	Baseline			1	1296	A1	Zahlen	r	124
11	346	Baseline			1	666	A2	Buchstaben	s	125
11	639	Baseline			0	500	A1	Zahlen	s	126
11	742	Baseline			1	581	A2	Buchstaben	s	127
11	732	Baseline			1	524	A2	Buchstaben	r	128
11	547	Baseline			1	635	A1	Zahlen	s	129
11	285	Baseline			1	497	A1	Zahlen	r	130
11	236	Baseline			1	514	A1	Zahlen	r	131
11	363	Baseline			1	490	A1	Zahlen	r	132
11	342	Baseline			0	518	A2	Buchstaben	s	133
11	421	Baseline			1	499	A2	Buchstaben	r	134
11	763	Baseline			1	553	A2	Buchstaben	r	135
11	384	Baseline			1	431	A1	Zahlen	s	136
11	429	Baseline			1	473	A1	Zahlen	r	137
11	437	Baseline			1	498	A2	Buchstaben	s	138
11	459	Baseline			1	470	A1	Zahlen	s	139
11	496	Baseline			1	522	A1	Zahlen	r	140
11	452	Baseline			1	624	A2	Buchstaben	s	141
11	487	Baseline			1	977	A1	Zahlen	s	142
11	520	Baseline			1	657	A1	Zahlen	r	143
11	358	Baseline			1	453	A2	Buchstaben	s	144
11		Baseline			1	1486	A2	Buchstaben	NaN	1
11	605	Baseline			1	691	A1	Zahlen	s	2
11	931	Baseline			1	522	A2	Buchstaben	s	3
11	530	Baseline			1	570	A2	Buchstaben	r	4
11	257	Baseline			1	533	A2	Buchstaben	r	5
11	683	Baseline			0	493	A1	Zahlen	s	6
11	2120	Baseline			1	508	A2	Buchstaben	s	7
11	645	Baseline			1	585	A2	Buchstaben	r	8
11	369	Baseline			1	560	A1	Zahlen	s	9
11	294	Baseline			1	441	A1	Zahlen	r	10
11	260	Baseline			1	776	A1	Zahlen	r	11
11	311	Baseline			1	552	A2	Buchstaben	s	12
11	704	Baseline			1	449	A2	Buchstaben	r	13
11	299	Baseline			0	478	A1	Zahlen	s	14
11	641	Baseline			1	773	A2	Buchstaben	s	15
11	275	Baseline			1	486	A1	Zahlen	s	16
11	482	Baseline			1	477	A1	Zahlen	r	17
11	521	Baseline			1	642	A2	Buchstaben	s	18
11	631	Baseline			1	508	A1	Zahlen	s	19
11	438	Baseline			1	563	A1	Zahlen	r	20
11	346	Baseline			1	714	A2	Buchstaben	s	21
11	537	Baseline			1	610	A2	Buchstaben	r	22
11	390	Baseline			0	467	A1	Zahlen	s	23
11	589	Baseline			1	499	A2	Buchstaben	s	24
11	1230	Baseline			1	536	A2	Buchstaben	r	25
11	447	Baseline			1	555	A1	Zahlen	s	26
11	465	Baseline			0	509	A2	Buchstaben	s	27
11	1190	Baseline			1	754	A1	Zahlen	s	28
11	802	Baseline			1	656	A1	Zahlen	r	29
11	1441	Baseline			1	595	A2	Buchstaben	s	30
11	426	Baseline			0	791	A1	Zahlen	s	31
11	689	Baseline			1	627	A2	Buchstaben	s	32
11	392	Baseline			1	551	A2	Buchstaben	r	33
11	301	Baseline			1	447	A2	Buchstaben	r	34
11	748	Baseline			1	427	A1	Zahlen	s	35
11	282	Baseline			1	525	A1	Zahlen	r	36
11	613	Baseline			1	538	A2	Buchstaben	s	37
11	307	Baseline			1	661	A1	Zahlen	s	38
11	519	Baseline			1	496	A2	Buchstaben	s	39
11	475	Baseline			1	741	A2	Buchstaben	r	40
11	452	Baseline			1	577	A1	Zahlen	s	41
11	390	Baseline			1	581	A2	Buchstaben	s	42
11	523	Baseline			1	564	A2	Buchstaben	r	43
11	285	Baseline			1	720	A1	Zahlen	s	44
11	305	Baseline			1	499	A1	Zahlen	r	45
11	317	Baseline			1	543	A1	Zahlen	r	46
11	377	Baseline			1	728	A2	Buchstaben	s	47
11	343	Baseline			1	423	A1	Zahlen	s	48
11	530	Baseline			1	570	A1	Zahlen	r	49
11	1729	Baseline			1	550	A2	Buchstaben	s	50
11	334	Baseline			1	575	A2	Buchstaben	r	51
11	581	Baseline			1	572	A2	Buchstaben	r	52
11	436	Baseline			1	529	A1	Zahlen	s	53
11	313	Baseline			1	379	A2	Buchstaben	s	54
11	540	Baseline			1	468	A2	Buchstaben	r	55
11	381	Baseline			1	508	A1	Zahlen	s	56
11	327	Baseline			1	424	A1	Zahlen	r	57
11	707	Baseline			1	612	A2	Buchstaben	s	58
11	263	Baseline			1	491	A1	Zahlen	s	59
11	470	Baseline			1	450	A1	Zahlen	r	60
11	351	Baseline			1	462	A1	Zahlen	r	61
11	522	Baseline			1	546	A2	Buchstaben	s	62
11	506	Baseline			1	548	A1	Zahlen	s	63
11	300	Baseline			1	542	A2	Buchstaben	s	64
11	341	Baseline			1	485	A2	Buchstaben	r	65
11	592	Baseline			1	581	A1	Zahlen	s	66
11	653	Baseline			1	432	A2	Buchstaben	s	67
11	623	Baseline			0	579	A2	Buchstaben	r	68
11	808	Baseline			1	500	A1	Zahlen	s	69
11	861	Baseline			1	615	A1	Zahlen	r	70
11	716	Baseline			1	509	A2	Buchstaben	s	71
11	567	Baseline			0	526	A1	Zahlen	s	72
11	815	Baseline			1	555	A2	Buchstaben	s	73
11	307	Baseline			1	453	A2	Buchstaben	r	74
11	399	Baseline			1	509	A1	Zahlen	s	75
11	342	Baseline			1	535	A2	Buchstaben	s	76
11	301	Baseline			1	512	A1	Zahlen	s	77
11	379	Baseline			1	554	A1	Zahlen	r	78
11	369	Baseline			1	497	A1	Zahlen	r	79
11	393	Baseline			1	535	A2	Buchstaben	s	80
11	624	Baseline			1	516	A2	Buchstaben	r	81
11	496	Baseline			1	474	A2	Buchstaben	r	82
11	311	Baseline			1	505	A1	Zahlen	s	83
11	738	Baseline			1	418	A1	Zahlen	r	84
11	274	Baseline			1	629	A2	Buchstaben	s	85
11	299	Baseline			1	462	A2	Buchstaben	r	86
11	407	Baseline			1	613	A1	Zahlen	s	87
11	411	Baseline			1	504	A1	Zahlen	r	88
11	320	Baseline			1	498	A1	Zahlen	r	89
11	413	Baseline			1	571	A2	Buchstaben	s	90
11	672	Baseline			1	451	A2	Buchstaben	r	91
11	285	Baseline			1	512	A1	Zahlen	s	92
11	314	Baseline			1	507	A1	Zahlen	r	93
11	580	Baseline			1	539	A2	Buchstaben	s	94
11	353	Baseline			1	529	A2	Buchstaben	r	95
11	442	Baseline			0	662	A2	Buchstaben	r	96
11	459	Baseline			1	550	A1	Zahlen	s	97
11	462	Baseline			1	761	A2	Buchstaben	s	98
11	390	Baseline			1	421	A1	Zahlen	s	99
11	1233	Baseline			1	492	A1	Zahlen	r	100
11	276	Baseline			1	423	A1	Zahlen	r	101
11	1125	Baseline			1	404	A1	Zahlen	r	102
11	497	Baseline			1	507	A2	Buchstaben	s	103
11	276	Baseline			1	439	A2	Buchstaben	r	104
11	354	Baseline			1	386	A1	Zahlen	s	105
11	353	Baseline			1	481	A1	Zahlen	r	106
11	315	Baseline			1	477	A2	Buchstaben	s	107
11	455	Baseline			1	515	A1	Zahlen	s	108
11	270	Baseline			1	418	A1	Zahlen	r	109
11	592	Baseline			0	470	A2	Buchstaben	s	110
11	698	Baseline			1	556	A1	Zahlen	s	111
11	420	Baseline			1	562	A2	Buchstaben	s	112
11	427	Baseline			1	568	A2	Buchstaben	r	113
11	305	Baseline			1	804	A1	Zahlen	s	114
11	338	Baseline			1	515	A2	Buchstaben	s	115
11	317	Baseline			1	463	A1	Zahlen	s	116
11	1226	Baseline			0	533	A1	Zahlen	r	117
11	405	Baseline			1	531	A1	Zahlen	r	118
11	366	Baseline			1	429	A1	Zahlen	r	119
11	316	Baseline			1	461	A2	Buchstaben	s	120
11	583	Baseline			1	718	A1	Zahlen	s	121
11	289	Baseline			1	499	A2	Buchstaben	s	122
11	880	Baseline			1	601	A2	Buchstaben	r	123
11	607	Baseline			1	548	A1	Zahlen	s	124
11	269	Baseline			1	481	A1	Zahlen	r	125
11	427	Baseline			1	600	A2	Buchstaben	s	126
11	430	Baseline			1	619	A1	Zahlen	s	127
11	543	Baseline			1	519	A2	Buchstaben	s	128
11	641	Baseline			1	469	A2	Buchstaben	r	129
11	383	Baseline			1	590	A1	Zahlen	s	130
11	339	Baseline			1	499	A1	Zahlen	r	131
11	365	Baseline			1	477	A1	Zahlen	r	132
11	726	Baseline			1	518	A2	Buchstaben	s	133
11	320	Baseline			1	465	A1	Zahlen	s	134
11	447	Baseline			1	491	A2	Buchstaben	s	135
11	390	Baseline			1	500	A1	Zahlen	s	136
11	253	Baseline			1	722	A1	Zahlen	r	137
11	353	Baseline			1	546	A1	Zahlen	r	138
11	424	Baseline			1	453	A2	Buchstaben	s	139
11	433	Baseline			1	510	A1	Zahlen	s	140
11	391	Baseline			1	597	A1	Zahlen	r	141
11	522	Baseline			0	499	A2	Buchstaben	s	142
11	414	Baseline			1	411	A1	Zahlen	s	143
11	281	Baseline			1	508	A1	Zahlen	r	144
11		Test	1	0	1	1672	A1	Zahlen	NaN	1
11	1361	Test	2	2	0	501	A2	Buchstaben	s	2
11	1252	Test	1	4	1	478	A1	Zahlen	s	3
11	1274	Test	2	2	1	530	A1	Zahlen	r	4
11	1389	Test	2	3	0	609	A1	Zahlen	r	5
11	752	Test	1	4	1	607	A2	Buchstaben	s	6
11	1316	Test	2	2	0	475	A1	Zahlen	s	7
11	956	Test	1	4	1	515	A2	Buchstaben	s	8
11	1099	Test	2	2	1	475	A2	Buchstaben	r	9
11	663	Test	2	3	1	522	A2	Buchstaben	r	10
11	1361	Test	2	3	1	454	A1	Zahlen	s	11
11	962	Test	1	4	1	648	A2	Buchstaben	s	12
11	682	Test	1	1	1	508	A2	Buchstaben	r	13
11	375	Test	1	1	1	486	A1	Zahlen	s	14
11	721	Test	2	2	0	546	A1	Zahlen	r	15
11	546	Test	1	4	1	570	A2	Buchstaben	s	16
11	671	Test	2	2	1	578	A1	Zahlen	s	17
11	872	Test	2	3	1	354	A2	Buchstaben	s	18
11	594	Test	2	3	1	584	A1	Zahlen	s	19
11	460	Test	2	3	1	471	A2	Buchstaben	s	20
11	1891	Test	1	4	1	561	A2	Buchstaben	r	21
11	424	Test	2	2	1	677	A1	Zahlen	s	22
11	583	Test	2	3	1	557	A2	Buchstaben	s	23
11	117	Test	2	3	1	767	A1	Zahlen	s	24
11	925	Test	1	4	1	581	A2	Buchstaben	s	25
11	396	Test	2	2	0	618	A1	Zahlen	s	26
11	742	Test	2	3	1	597	A2	Buchstaben	s	27
11	1946	Test	1	4	1	534	A1	Zahlen	s	28
11	656	Test	2	2	1	515	A1	Zahlen	r	29
11	410	Test	1	4	1	584	A2	Buchstaben	s	30
11	606	Test	2	2	1	467	A1	Zahlen	s	31
11	700	Test	2	3	1	461	A2	Buchstaben	s	32
11	442	Test	2	3	0	518	A1	Zahlen	s	33
11	399	Test	1	4	0	462	A2	Buchstaben	s	34
11	920	Test	2	2	1	480	A1	Zahlen	s	35
11	585	Test	2	3	1	512	A1	Zahlen	r	36
11	362	Test	2	3	1	538	A2	Buchstaben	s	37
11	399	Test	1	4	1	493	A1	Zahlen	s	38
11	409	Test	1	1	1	407	A1	Zahlen	r	39
11	645	Test	1	1	1	505	A2	Buchstaben	s	40
11	592	Test	2	2	1	694	A1	Zahlen	s	41
11	583	Test	1	4	0	526	A2	Buchstaben	s	42
11	700	Test	2	2	1	541	A1	Zahlen	s	43
11	2164	Test	2	3	1	486	A1	Zahlen	r	44
11	718	Test	2	3	1	447	A2	Buchstaben	s	45
11	585	Test	2	3	1	415	A2	Buchstaben	r	46
11	461	Test	2	3	1	536	A2	Buchstaben	r	47
11	416	Test	1	4	1	542	A1	Zahlen	s	48
11	1350	Test	2	2	1	411	A1	Zahlen	r	49
11	427	Test	1	4	0	519	A2	Buchstaben	s	50
11	569	Test	2	2	1	432	A1	Zahlen	s	51
11	507	Test	1	4	1	484	A1	Zahlen	r	52
11	382	Test	1	1	1	429	A2	Buchstaben	s	53
11	411	Test	1	1	0	665	A1	Zahlen	s	54
11	691	Test	2	2	1	596	A2	Buchstaben	s	55
11	522	Test	1	4	0	531	A1	Zahlen	s	56
11	884	Test	1	1	1	509	A2	Buchstaben	s	57
11	663	Test	2	2	1	538	A1	Zahlen	s	58
11	564	Test	1	4	1	555	A2	Buchstaben	s	59
11	641	Test	1	1	1	468	A1	Zahlen	s	60
11	445	Test	1	1	1	569	A2	Buchstaben	s	61
11	414	Test	1	1	1	492	A2	Buchstaben	r	62
11	517	Test	1	1	1	542	A2	Buchstaben	r	63
11	324	Test	1	1	0	517	A1	Zahlen	s	64
11	382	Test	1	1	1	765	A2	Buchstaben	s	65
11	330	Test	1	1	1	523	A1	Zahlen	s	66
11	597	Test	2	2	1	491	A2	Buchstaben	s	67
11	453	Test	2	3	1	609	A2	Buchstaben	r	68
11	742	Test	2	3	0	534	A2	Buchstaben	r	69
11	218	Test	1	4	1	560	A1	Zahlen	s	70
11	2166	Test	2	2	1	601	A2	Buchstaben	s	71
11	672	Test	2	3	1	691	A1	Zahlen	s	72
11	660	Test	1	4	1	630	A2	Buchstaben	s	73
11	461	Test	1	1	1	728	A1	Zahlen	s	74
11	822	Test	2	2	1	402	A2	Buchstaben	s	75
11	479	Test	1	4	1	666	A1	Zahlen	s	76
11	334	Test	1	1	1	463	A2	Buchstaben	s	77
11	1369	Test	2	2	1	430	A2	Buchstaben	r	78
11	779	Test	2	3	1	473	A2	Buchstaben	r	79
11	532	Test	2	3	1	493	A1	Zahlen	s	80
11	438	Test	2	3	1	418	A2	Buchstaben	s	81
11	400	Test	1	4	0	494	A1	Zahlen	s	82
11	697	Test	1	1	1	650	A2	Buchstaben	s	83
11	2350	Test	2	2	1	392	A2	Buchstaben	r	84
11	392	Test	1	4	1	631	A1	Zahlen	s	85
11	364	Test	1	1	1	587	A2	Buchstaben	s	86
11	704	Test	2	2	1	481	A1	Zahlen	s	87
11	317	Test	2	3	0	479	A2	Buchstaben	s	88
11	440	Test	1	4	0	516	A1	Zahlen	s	89
11	733	Test	2	2	1	493	A2	Buchstaben	s	90
11	1031	Test	2	3	1	474	A2	Buchstaben	r	91
11	533	Test	2	3	1	525	A1	Zahlen	s	92
11	3604	Test	2	3	1	457	A1	Zahlen	r	93
11	308	Test	1	4	1	469	A2	Buchstaben	s	94
11	575	Test	1	1	1	565	A1	Zahlen	s	95
11	317	Test	1	1	1	527	A2	Buchstaben	s	96
11	729	Test	1	1	1	553	A2	Buchstaben	r	97
11	882	Test	2	2	0	412	A2	Buchstaben	r	98
11	714	Test	1	4	1	651	A1	Zahlen	s	99
11	1744	Test	2	2	1	436	A1	Zahlen	r	100
11	866	Test	2	3	1	508	A1	Zahlen	r	101
11	646	Test	1	4	1	633	A2	Buchstaben	s	102
11	1725	Test	1	1	1	771	A1	Zahlen	s	103
11	371	Test	2	2	1	611	A2	Buchstaben	s	104
11	90	Test	1	4	1	581	A1	Zahlen	s	105
11	361	Test	1	1	0	361	A2	Buchstaben	s	106
11	1296	Test	2	2	1	504	A2	Buchstaben	r	107
11	529	Test	1	4	1	697	A1	Zahlen	s	108
11	508	Test	1	1	1	549	A2	Buchstaben	s	109
11	1116	Test	1	1	1	523	A1	Zahlen	s	110
11	278	Test	1	1	1	377	A2	Buchstaben	s	111
11	743	Test	2	2	1	375	A2	Buchstaben	r	112
11	436	Test	1	4	1	384	A1	Zahlen	s	113
11	288	Test	1	1	1	531	A2	Buchstaben	s	114
11	1275	Test	2	2	1	419	A2	Buchstaben	r	115
11	304	Test	1	4	1	642	A1	Zahlen	s	116
11	709	Test	1	1	0	469	A2	Buchstaben	s	117
11	886	Test	2	2	1	480	A1	Zahlen	s	118
11	313	Test	2	3	1	411	A1	Zahlen	r	119
11	330	Test	1	4	1	699	A2	Buchstaben	s	120
11	507	Test	2	2	1	468	A1	Zahlen	s	121
11	607	Test	2	3	1	404	A1	Zahlen	r	122
11	273	Test	1	4	1	468	A2	Buchstaben	s	123
11	417	Test	1	1	1	542	A1	Zahlen	s	124
11	309	Test	1	1	0	407	A2	Buchstaben	s	125
11	607	Test	2	2	1	499	A2	Buchstaben	r	126
11	668	Test	1	4	1	591	A1	Zahlen	s	127
11	294	Test	1	1	1	809	A2	Buchstaben	s	128
11	423	Test	1	1	1	627	A1	Zahlen	s	129
11	22	Test	1	1	0	644	A2	Buchstaben	s	130
11	279	Test	1	1	1	506	A1	Zahlen	s	131
11	1745	Test	2	2	1	502	A2	Buchstaben	s	132
11	385	Test	1	4	1	560	A2	Buchstaben	r	133
11	486	Test	2	2	1	416	A1	Zahlen	s	134
11	331	Test	2	3	1	668	A1	Zahlen	r	135
11	1261	Test	2	3	1	502	A1	Zahlen	r	136
11	318	Test	1	4	1	528	A2	Buchstaben	s	137
11	458	Test	1	1	1	389	A1	Zahlen	s	138
11	1186	Test	2	2	0	415	A1	Zahlen	r	139
11	514	Test	1	4	1	683	A2	Buchstaben	s	140
11	939	Test	1	1	0	611	A1	Zahlen	s	141
11	4063	Test	2	2	1	417	A2	Buchstaben	s	142
11	430	Test	1	4	0	459	A1	Zahlen	s	143
11	416	Test	1	1	1	637	A1	Zahlen	r	144
11	354	Test	1	1	1	579	A2	Buchstaben	s	145
11	601	Test	2	2	1	479	A1	Zahlen	s	146
11	328	Test	2	3	1	361	A1	Zahlen	r	147
11	758	Test	2	3	1	373	A1	Zahlen	r	148
11	294	Test	2	3	1	456	A1	Zahlen	r	149
11	854	Test	2	3	1	449	A2	Buchstaben	s	150
11	346	Test	2	3	1	379	A2	Buchstaben	r	151
11	729	Test	1	4	1	696	A1	Zahlen	s	152
11	476	Test	2	2	1	566	A2	Buchstaben	s	153
11	477	Test	1	4	1	600	A1	Zahlen	s	154
11	379	Test	1	1	1	522	A2	Buchstaben	s	155
11	466	Test	2	2	1	430	A1	Zahlen	s	156
11	969	Test	2	3	1	495	A1	Zahlen	r	157
11	410	Test	2	3	1	488	A2	Buchstaben	s	158
11	515	Test	2	3	1	460	A2	Buchstaben	r	159
11	264	Test	1	4	1	460	A1	Zahlen	s	160
11		Test	1	0	1	1853	A1	Zahlen	NaN	1
11	571	Test	2	2	0	482	A2	Buchstaben	s	2
11	660	Test	1	4	1	598	A2	Buchstaben	r	3
11	890	Test	2	2	1	435	A2	Buchstaben	r	4
11	494	Test	2	3	1	968	A1	Zahlen	s	5
11	1436	Test	1	4	1	526	A2	Buchstaben	s	6
11	664	Test	2	2	1	410	A2	Buchstaben	r	7
11	375	Test	1	4	1	470	A1	Zahlen	s	8
11	513	Test	2	2	1	426	A1	Zahlen	r	9
11	629	Test	2	3	1	410	A1	Zahlen	r	10
11	405	Test	2	3	1	515	A1	Zahlen	r	11
11	555	Test	1	4	1	531	A2	Buchstaben	s	12
11	314	Test	1	1	1	556	A1	Zahlen	s	13
11	275	Test	1	1	1	406	A2	Buchstaben	s	14
11	758	Test	2	2	1	372	A2	Buchstaben	r	15
11	308	Test	1	4	0	486	A1	Zahlen	s	16
11	2669	Test	2	2	1	538	A1	Zahlen	r	17
11	35	Test	2	3	0	785	A2	Buchstaben	s	18
11	779	Test	2	3	1	601	A1	Zahlen	s	19
11	574	Test	2	3	1	628	A2	Buchstaben	s	20
11	345	Test	1	4	1	634	A2	Buchstaben	r	21
11	623	Test	2	2	1	467	A2	Buchstaben	r	22
11	589	Test	2	3	0	451	A2	Buchstaben	r	23
11	646	Test	2	3	1	489	A2	Buchstaben	r	24
11	322	Test	1	4	1	675	A1	Zahlen	s	25
11	838	Test	2	2	1	529	A2	Buchstaben	s	26
11	856	Test	2	3	0	419	A2	Buchstaben	r	27
11	1306	Test	1	4	1	577	A1	Zahlen	s	28
11	825	Test	2	2	1	565	A1	Zahlen	r	29
11	300	Test	1	4	0	639	A2	Buchstaben	s	30
11	554	Test	2	2	1	434	A2	Buchstaben	r	31
11	413	Test	2	3	1	491	A1	Zahlen	s	32
11	341	Test	2	3	1	389	A1	Zahlen	r	33
11	293	Test	1	4	1	440	A2	Buchstaben	s	34
11	1012	Test	2	2	0	455	A2	Buchstaben	r	35
11	1182	Test	2	3	1	475	A2	Buchstaben	r	36
11	629	Test	2	3	1	474	A1	Zahlen	s	37
11	338	Test	1	4	1	643	A1	Zahlen	r	38
11	312	Test	1	1	1	602	A2	Buchstaben	s	39
11	319	Test	1	1	1	609	A1	Zahlen	s	40
11	166	Test	2	2	1	430	A1	Zahlen	r	41
11	315	Test	1	4	1	461	A1	Zahlen	r	42
11	41	Test	2	2	1	550	A2	Buchstaben	s	43
11	605	Test	2	3	1	514	A2	Buchstaben	r	44
11	508	Test	2	3	1	437	A1	Zahlen	s	45
11	48	Test	2	3	1	557	A2	Buchstaben	s	46
11	69	Test	2	3	1	498	A2	Buchstaben	r	47
11	157	Test	1	4	1	582	A1	Zahlen	s	48
11	956	Test	2	2	1	435	A1	Zahlen	r	49
11	369	Test	1	4	1	512	A2	Buchstaben	s	50
11	795	Test	2	2	0	344	A2	Buchstaben	r	51
11	262	Test	1	4	0	650	A1	Zahlen	s	52
11	595	Test	1	1	1	633	A2	Buchstaben	s	53
11	1693	Test	1	1	1	659	A1	Zahlen	s	54
11	823	Test	2	2	0	435	A1	Zahlen	r	55
11	1025	Test	1	4	1	564	A2	Buchstaben	s	56
11	317	Test	1	1	1	638	A1	Zahlen	s	57
11	1572	Test	2	2	0	768	A1	Zahlen	r	58
11	675	Test	1	4	1	613	A2	Buchstaben	s	59
11	748	Test	1	1	0	683	A1	Zahlen	s	60
11	1086	Test	1	1	1	559	A2	Buchstaben	s	61
11	308	Test	1	1	1	470	A1	Zahlen	s	62
11	466	Test	1	1	1	621	A2	Buchstaben	s	63
11	290	Test	1	1	0	724	A1	Zahlen	s	64
11	1280	Test	1	1	1	696	A2	Buchstaben	s	65
11	492	Test	1	1	1	549	A1	Zahlen	s	66
11	2031	Test	2	2	1	519	A1	Zahlen	r	67
11	640	Test	2	3	1	404	A1	Zahlen	r	68
11	1231	Test	2	3	1	410	A2	Buchstaben	s	69
11	56	Test	1	4	1	564	A1	Zahlen	s	70
11	1612	Test	2	2	0	390	A1	Zahlen	r	71
11	534	Test	2	3	1	479	A2	Buchstaben	s	72
11	43	Test	1	4	1	552	A1	Zahlen	s	73
11	478	Test	1	1	1	538	A2	Buchstaben	s	74
11	1344	Test	2	2	1	501	A2	Buchstaben	r	75
11	14	Test	1	4	1	669	A1	Zahlen	s	76
11	527	Test	1	1	1	504	A2	Buchstaben	s	77
11	611	Test	2	2	1	424	A2	Buchstaben	r	78
11	231	Test	2	3	1	508	A2	Buchstaben	r	79
11	981	Test	2	3	1	378	A1	Zahlen	s	80
11	90	Test	2	3	1	517	A1	Zahlen	r	81
11	796	Test	1	4	1	601	A2	Buchstaben	s	82
11	381	Test	1	1	1	780	A1	Zahlen	s	83
11	1227	Test	2	2	0	469	A2	Buchstaben	s	84
11	431	Test	1	4	1	619	A1	Zahlen	s	85
11	511	Test	1	1	1	504	A1	Zahlen	r	86
11	867	Test	2	2	1	478	A1	Zahlen	r	87
11	584	Test	2	3	1	462	A1	Zahlen	r	88
11	474	Test	1	4	1	580	A1	Zahlen	r	89
11	458	Test	2	2	1	470	A2	Buchstaben	s	90
11	337	Test	2	3	1	371	A2	Buchstaben	r	91
11	402	Test	2	3	1	416	A2	Buchstaben	r	92
11	333	Test	2	3	1	493	A2	Buchstaben	r	93
11	358	Test	1	4	1	502	A1	Zahlen	s	94
11	157	Test	1	1	1	533	A2	Buchstaben	s	95
11	491	Test	1	1	1	437	A1	Zahlen	s	96
11	383	Test	1	1	0	446	A2	Buchstaben	s	97
11	1174	Test	2	2	1	435	A1	Zahlen	s	98
11	113	Test	1	4	1	507	A2	Buchstaben	s	99
11	949	Test	2	2	0	412	A1	Zahlen	s	100
11	659	Test	2	3	0	534	A2	Buchstaben	s	101
11	183	Test	1	4	1	654	A1	Zahlen	s	102
11	352	Test	1	1	1	592	A2	Buchstaben	s	103
11	1128	Test	2	2	1	551	A1	Zahlen	s	104
11	207	Test	1	4	1	501	A2	Buchstaben	s	105
11	526	Test	1	1	1	710	A1	Zahlen	s	106
11	1990	Test	2	2	1	496	A1	Zahlen	r	107
11	1180	Test	1	4	0	520	A1	Zahlen	r	108
11	716	Test	1	1	0	637	A2	Buchstaben	s	109
11	470	Test	1	1	1	481	A1	Zahlen	s	110
11	617	Test	1	1	1	558	A1	Zahlen	r	111
11	485	Test	2	2	0	415	A1	Zahlen	r	112
11	666	Test	1	4	1	493	A2	Buchstaben	s	113
11	1015	Test	1	1	1	539	A1	Zahlen	s	114
11	564	Test	2	2	1	379	A1	Zahlen	r	115
11	312	Test	1	4	1	538	A2	Buchstaben	s	116
11	338	Test	1	1	1	627	A2	Buchstaben	r	117
11	1415	Test	2	2	1	474	A2	Buchstaben	r	118
11	436	Test	2	3	1	496	A2	Buchstaben	r	119
11	317	Test	1	4	1	542	A1	Zahlen	s	120
11	2951	Test	2	2	1	520	A1	Zahlen	r	121
11	432	Test	2	3	1	396	A1	Zahlen	r	122
11	250	Test	1	4	1	702	A2	Buchstaben	s	123
11	512	Test	1	1	0	649	A1	Zahlen	s	124
11	584	Test	1	1	1	542	A2	Buchstaben	s	125
11	904	Test	2	2	0	400	A1	Zahlen	s	126
11	413	Test	1	4	1	554	A2	Buchstaben	s	127
11	304	Test	1	1	1	578	A1	Zahlen	s	128
11	345	Test	1	1	1	537	A1	Zahlen	r	129
11	322	Test	1	1	1	515	A1	Zahlen	r	130
11	364	Test	1	1	1	604	A2	Buchstaben	s	131
11	1873	Test	2	2	1	464	A2	Buchstaben	r	132
11	219	Test	1	4	1	513	A1	Zahlen	s	133
11	619	Test	2	2	1	368	A1	Zahlen	r	134
11	561	Test	2	3	1	440	A1	Zahlen	r	135
11	565	Test	2	3	1	428	A1	Zahlen	r	136
11	343	Test	1	4	1	584	A2	Buchstaben	s	137
11	303	Test	1	1	1	577	A1	Zahlen	s	138
11	489	Test	2	2	1	451	A1	Zahlen	r	139
11	189	Test	1	4	1	467	A2	Buchstaben	s	140
11	336	Test	1	1	0	593	A2	Buchstaben	r	141
11	663	Test	2	2	1	378	A2	Buchstaben	r	142
11	167	Test	1	4	1	527	A1	Zahlen	s	143
11	520	Test	1	1	1	529	A2	Buchstaben	s	144
11	521	Test	1	1	1	658	A1	Zahlen	s	145
11	903	Test	2	2	0	544	A2	Buchstaben	s	146
11	1266	Test	2	3	1	475	A2	Buchstaben	r	147
11	532	Test	2	3	0	411	A2	Buchstaben	r	148
11	585	Test	2	3	0	495	A2	Buchstaben	r	149
11	338	Test	2	3	1	434	A2	Buchstaben	r	150
11	366	Test	2	3	1	446	A2	Buchstaben	r	151
11	283	Test	1	4	1	1358	A1	Zahlen	s	152
11	1507	Test	2	2	0	450	A1	Zahlen	r	153
11	873	Test	1	4	1	579	A2	Buchstaben	s	154
11	379	Test	1	1	1	537	A1	Zahlen	s	155
11	641	Test	2	2	1	404	A2	Buchstaben	s	156
11	369	Test	2	3	1	369	A1	Zahlen	s	157
11	368	Test	2	3	1	464	A2	Buchstaben	s	158
11	1084	Test	2	3	1	477	A1	Zahlen	s	159
11	358	Test	1	4	1	438	A2	Buchstaben	s	160
11		Test	1	0	1	952	A2	Buchstaben	NaN	1
11	606	Test	2	2	1	435	A1	Zahlen	s	2
11	209	Test	1	4	1	551	A2	Buchstaben	s	3
11	364	Test	2	2	0	316	A1	Zahlen	s	4
11	475	Test	2	3	1	389	A2	Buchstaben	s	5
11	485	Test	1	4	1	527	A2	Buchstaben	r	6
11	778	Test	2	2	1	423	A2	Buchstaben	r	7
11	243	Test	1	4	1	472	A1	Zahlen	s	8
11	467	Test	2	2	1	542	A1	Zahlen	r	9
11	453	Test	2	3	0	433	A2	Buchstaben	s	10
11	457	Test	2	3	1	453	A1	Zahlen	s	11
11	289	Test	1	4	1	644	A1	Zahlen	r	12
11	296	Test	1	1	1	491	A2	Buchstaben	s	13
11	52	Test	1	1	1	673	A1	Zahlen	s	14
11	850	Test	2	2	0	477	A1	Zahlen	r	15
11	318	Test	1	4	1	448	A2	Buchstaben	s	16
11	2253	Test	2	2	1	972	A1	Zahlen	s	17
11	498	Test	2	3	1	523	A1	Zahlen	r	18
11	323	Test	2	3	1	340	A1	Zahlen	r	19
11	420	Test	2	3	1	449	A1	Zahlen	r	20
11	268	Test	1	4	1	480	A2	Buchstaben	s	21
11	378	Test	2	2	0	425	A1	Zahlen	s	22
11	451	Test	2	3	0	447	A2	Buchstaben	s	23
11	1769	Test	2	3	1	445	A1	Zahlen	s	24
11	427	Test	1	4	1	584	A1	Zahlen	r	25
11	303	Test	2	2	1	370	A1	Zahlen	r	26
11	289	Test	2	3	1	371	A1	Zahlen	r	27
11	272	Test	1	4	1	452	A2	Buchstaben	s	28
11	673	Test	2	2	1	404	A2	Buchstaben	r	29
11	483	Test	1	4	1	462	A1	Zahlen	s	30
11	1160	Test	2	2	1	790	A1	Zahlen	r	31
11	306	Test	2	3	1	324	A1	Zahlen	r	32
11	435	Test	2	3	1	400	A1	Zahlen	r	33
11	269	Test	1	4	0	513	A2	Buchstaben	s	34
11	891	Test	2	2	1	484	A2	Buchstaben	r	35
11	896	Test	2	3	1	425	A2	Buchstaben	r	36
11	406	Test	2	3	1	404	A1	Zahlen	s	37
11	371	Test	1	4	1	915	A2	Buchstaben	s	38
11	187	Test	1	1	1	545	A1	Zahlen	s	39
11	328	Test	1	1	0	473	A2	Buchstaben	s	40
11	2738	Test	2	2	1	460	A1	Zahlen	s	41
11	120	Test	1	4	1	498	A2	Buchstaben	s	42
11	1563	Test	2	2	1	344	A2	Buchstaben	r	43
11	856	Test	2	3	1	419	A1	Zahlen	s	44
11	543	Test	2	3	1	327	A1	Zahlen	r	45
11	423	Test	2	3	1	420	A1	Zahlen	r	46
11	368	Test	2	3	1	463	A1	Zahlen	r	47
11	298	Test	1	4	1	621	A2	Buchstaben	s	48
11	786	Test	2	2	1	432	A1	Zahlen	s	49
11	301	Test	1	4	1	511	A2	Buchstaben	s	50
11	584	Test	2	2	0	463	A1	Zahlen	s	51
11	337	Test	1	4	1	514	A2	Buchstaben	s	52
11	652	Test	1	1	1	704	A1	Zahlen	s	53
11	530	Test	1	1	1	555	A2	Buchstaben	s	54
11	1939	Test	2	2	1	544	A2	Buchstaben	r	55
11	329	Test	1	4	1	442	A1	Zahlen	s	56
11	197	Test	1	1	1	989	A2	Buchstaben	s	57
11	1778	Test	2	2	1	388	A2	Buchstaben	r	58
11	516	Test	1	4	1	701	A1	Zahlen	s	59
11	447	Test	1	1	1	523	A2	Buchstaben	s	60
11	422	Test	1	1	0	451	A1	Zahlen	s	61
11	314	Test	1	1	1	540	A2	Buchstaben	s	62
11	594	Test	1	1	1	632	A2	Buchstaben	r	63
11	333	Test	1	1	1	446	A2	Buchstaben	r	64
11	348	Test	1	1	1	476	A1	Zahlen	s	65
11	359	Test	1	1	1	550	A2	Buchstaben	s	66
11	798	Test	2	2	1	411	A1	Zahlen	s	67
11	8	Test	2	3	1	550	A1	Zahlen	r	68
11	412	Test	2	3	1	346	A1	Zahlen	r	69
11	330	Test	1	4	1	556	A2	Buchstaben	s	70
11	689	Test	2	2	1	451	A1	Zahlen	s	71
11	1343	Test	2	3	1	340	A1	Zahlen	r	72
11	327	Test	1	4	1	440	A2	Buchstaben	s	73
11	419	Test	1	1	1	608	A1	Zahlen	s	74
11	2740	Test	2	2	1	511	A2	Buchstaben	s	75
11	56	Test	1	4	1	629	A1	Zahlen	s	76
11	375	Test	1	1	1	438	A2	Buchstaben	s	77
11	851	Test	2	2	1	494	A2	Buchstaben	r	78
11	489	Test	2	3	1	434	A1	Zahlen	s	79
11	477	Test	2	3	1	456	A1	Zahlen	r	80
11	468	Test	2	3	1	543	A1	Zahlen	r	81
11	376	Test	1	4	0	375	A2	Buchstaben	s	82
11	462	Test	1	1	1	425	A1	Zahlen	s	83
11	567	Test	2	2	0	462	A1	Zahlen	r	84
11	495	Test	1	4	1	568	A2	Buchstaben	s	85
11	1	Test	1	1	1	496	A1	Zahlen	s	86
11	472	Test	2	2	0	595	A1	Zahlen	r	87
11	273	Test	2	3	1	452	A1	Zahlen	r	88
11	942	Test	1	4	1	501	A2	Buchstaben	s	89
11	412	Test	2	2	1	458	A1	Zahlen	s	90
11	549	Test	2	3	1	540	A2	Buchstaben	s	91
11	326	Test	2	3	1	471	A1	Zahlen	s	92
11	419	Test	2	3	1	416	A1	Zahlen	r	93
11	812	Test	1	4	1	472	A2	Buchstaben	s	94
11	354	Test	1	1	1	482	A1	Zahlen	s	95
11	171	Test	1	1	1	562	A2	Buchstaben	s	96
11	327	Test	1	1	1	456	A1	Zahlen	s	97
11	405	Test	2	2	1	435	A2	Buchstaben	s	98
11	190	Test	1	4	1	501	A2	Buchstaben	r	99
11	13	Test	2	2	0	620	A2	Buchstaben	r	100
11	17	Test	2	3	1	464	A1	Zahlen	s	101
11	346	Test	1	4	0	458	A2	Buchstaben	s	102
11	754	Test	1	1	1	529	A1	Zahlen	s	103
11	796	Test	2	2	1	377	A2	Buchstaben	s	104
11	549	Test	1	4	1	605	A1	Zahlen	s	105
11	403	Test	1	1	1	513	A2	Buchstaben	s	106
11	633	Test	2	2	1	461	A2	Buchstaben	r	107
11	71	Test	1	4	1	532	A1	Zahlen	s	108
11	268	Test	1	1	1	384	A2	Buchstaben	s	109
11	288	Test	1	1	1	531	A2	Buchstaben	r	110
11	395	Test	1	1	1	585	A1	Zahlen	s	111
11	1631	Test	2	2	1	376	A1	Zahlen	r	112
11	967	Test	1	4	1	413	A1	Zahlen	r	113
11	329	Test	1	1	1	490	A2	Buchstaben	s	114
11	1076	Test	2	2	1	373	A2	Buchstaben	r	115
11	291	Test	1	4	1	438	A1	Zahlen	s	116
11	464	Test	1	1	1	315	A2	Buchstaben	s	117
11	508	Test	2	2	1	357	A1	Zahlen	s	118
11	404	Test	2	3	1	498	A1	Zahlen	r	119
11	285	Test	1	4	1	417	A2	Buchstaben	s	120
11	302	Test	2	2	0	417	A1	Zahlen	s	121
11	839	Test	2	3	1	434	A1	Zahlen	r	122
11	272	Test	1	4	1	467	A2	Buchstaben	s	123
11	94	Test	1	1	1	553	A1	Zahlen	s	124
11	255	Test	1	1	1	403	A2	Buchstaben	s	125
11	832	Test	2	2	1	347	A2	Buchstaben	r	126
11	317	Test	1	4	0	447	A1	Zahlen	s	127
11	486	Test	1	1	1	496	A2	Buchstaben	s	128
11	362	Test	1	1	1	682	A1	Zahlen	s	129
11	363	Test	1	1	1	538	A1	Zahlen	r	130
11	673	Test	1	1	1	628	A2	Buchstaben	s	131
11	570	Test	2	2	1	385	A2	Buchstaben	r	132
11	304	Test	1	4	1	562	A2	Buchstaben	r	133
11	666	Test	2	2	1	413	A1	Zahlen	s	134
11	553	Test	2	3	1	481	A2	Buchstaben	s	135
11	1129	Test	2	3	1	423	A2	Buchstaben	r	136
11	117	Test	1	4	1	543	A1	Zahlen	s	137
11	181	Test	1	1	1	524	A2	Buchstaben	s	138
11	631	Test	2	2	1	395	A1	Zahlen	s	139
11	440	Test	1	4	1	580	A1	Zahlen	r	140
11	716	Test	1	1	0	461	A2	Buchstaben	s	141
11	792	Test	2	2	1	389	A1	Zahlen	s	142
11	564	Test	1	4	1	491	A2	Buchstaben	s	143
11	295	Test	1	1	1	426	A1	Zahlen	s	144
11	293	Test	1	1	1	423	A2	Buchstaben	s	145
11	454	Test	2	2	0	402	A1	Zahlen	s	146
11	55	Test	2	3	1	483	A2	Buchstaben	s	147
11	718	Test	2	3	1	382	A2	Buchstaben	r	148
11	427	Test	2	3	1	440	A2	Buchstaben	r	149
11	291	Test	2	3	1	438	A2	Buchstaben	r	150
11	369	Test	2	3	1	624	A2	Buchstaben	r	151
11	518	Test	1	4	1	591	A1	Zahlen	s	152
11	1207	Test	2	2	1	627	A1	Zahlen	r	153
11	313	Test	1	4	1	426	A2	Buchstaben	s	154
11	328	Test	1	1	1	600	A1	Zahlen	s	155
11	382	Test	2	2	1	492	A1	Zahlen	r	156
11	277	Test	2	3	0	392	A2	Buchstaben	s	157
11	595	Test	2	3	1	457	A1	Zahlen	s	158
11	423	Test	2	3	1	500	A2	Buchstaben	s	159
11	572	Test	1	4	1	547	A1	Zahlen	s	160
12		Baseline			1	511	A2	Buchstaben	NaN	1
12	642	Baseline			1	566	A1	Zahlen	s	2
12	428	Baseline			1	616	A1	Zahlen	r	3
12	308	Baseline			1	534	A1	Zahlen	r	4
12	439	Baseline			0	587	A2	Buchstaben	s	5
12	474	Baseline			1	533	A1	Zahlen	s	6
12	502	Baseline			1	639	A1	Zahlen	r	7
12	627	Baseline			1	607	A1	Zahlen	r	8
12	379	Baseline			1	569	A1	Zahlen	r	9
12	330	Baseline			1	587	A2	Buchstaben	s	10
12	407	Baseline			1	788	A1	Zahlen	s	11
12	313	Baseline			1	547	A1	Zahlen	r	12
12	572	Baseline			1	995	A1	Zahlen	r	13
12	289	Baseline			1	579	A1	Zahlen	r	14
12	632	Baseline			1	756	A2	Buchstaben	s	15
12	332	Baseline			1	445	A2	Buchstaben	r	16
12	255	Baseline			1	707	A2	Buchstaben	r	17
12	261	Baseline			1	489	A1	Zahlen	s	18
12	267	Baseline			1	487	A2	Buchstaben	s	19
12	64	Baseline			1	453	A2	Buchstaben	r	20
12	279	Baseline			1	546	A2	Buchstaben	r	21
12	288	Baseline			1	539	A2	Buchstaben	r	22
12	226	Baseline			1	519	A1	Zahlen	s	23
12	424	Baseline			1	597	A1	Zahlen	r	24
12	372	Baseline			1	483	A1	Zahlen	r	25
12	316	Baseline			1	558	A2	Buchstaben	s	26
12	341	Baseline			1	677	A2	Buchstaben	r	27
12	279	Baseline			1	498	A1	Zahlen	s	28
12	323	Baseline			0	540	A1	Zahlen	r	29
12	395	Baseline			1	585	A2	Buchstaben	s	30
12	359	Baseline			1	478	A2	Buchstaben	r	31
12	300	Baseline			0	582	A2	Buchstaben	r	32
12	270	Baseline			1	530	A2	Buchstaben	r	33
12	299	Baseline			1	581	A2	Buchstaben	r	34
12	571	Baseline			1	490	A2	Buchstaben	r	35
12	259	Baseline			1	495	A1	Zahlen	s	36
12	242	Baseline			1	735	A2	Buchstaben	s	37
12	525	Baseline			1	581	A1	Zahlen	s	38
12	731	Baseline			1	563	A1	Zahlen	r	39
12	267	Baseline			1	463	A1	Zahlen	r	40
12	260	Baseline			1	512	A1	Zahlen	r	41
12	232	Baseline			1	517	A1	Zahlen	r	42
12	255	Baseline			1	643	A1	Zahlen	r	43
12	173	Baseline			0	628	A1	Zahlen	r	44
12	570	Baseline			1	497	A2	Buchstaben	s	45
12	300	Baseline			1	478	A1	Zahlen	s	46
12	559	Baseline			1	590	A1	Zahlen	r	47
12	554	Baseline			1	466	A1	Zahlen	r	48
12	309	Baseline			1	463	A1	Zahlen	r	49
12	644	Baseline			1	535	A2	Buchstaben	s	50
12	638	Baseline			1	586	A1	Zahlen	s	51
12	1176	Baseline			1	573	A2	Buchstaben	s	52
12	274	Baseline			1	437	A2	Buchstaben	r	53
12	210	Baseline			1	440	A2	Buchstaben	r	54
12	244	Baseline			1	513	A2	Buchstaben	r	55
12	259	Baseline			1	575	A1	Zahlen	s	56
12	308	Baseline			1	534	A1	Zahlen	r	57
12	279	Baseline			1	498	A1	Zahlen	r	58
12	243	Baseline			1	552	A2	Buchstaben	s	59
12	231	Baseline			1	509	A2	Buchstaben	r	60
12	215	Baseline			1	485	A2	Buchstaben	r	61
12	279	Baseline			1	394	A2	Buchstaben	r	62
12	224	Baseline			1	493	A2	Buchstaben	r	63
12	303	Baseline			1	514	A2	Buchstaben	r	64
12	236	Baseline			1	537	A2	Buchstaben	r	65
12	234	Baseline			1	455	A2	Buchstaben	r	66
12	307	Baseline			1	533	A1	Zahlen	s	67
12	384	Baseline			1	487	A2	Buchstaben	s	68
12	634	Baseline			1	479	A1	Zahlen	s	69
12	434	Baseline			1	462	A1	Zahlen	r	70
12	227	Baseline			1	536	A1	Zahlen	r	71
12	273	Baseline			1	612	A1	Zahlen	r	72
12	256	Baseline			1	492	A1	Zahlen	r	73
12	327	Baseline			0	376	A1	Zahlen	r	74
12	339	Baseline			1	571	A1	Zahlen	r	75
12	281	Baseline			1	485	A1	Zahlen	r	76
12	309	Baseline			1	503	A1	Zahlen	r	77
12	239	Baseline			1	516	A2	Buchstaben	s	78
12	207	Baseline			1	357	A1	Zahlen	s	79
12	285	Baseline			1	576	A2	Buchstaben	s	80
12	223	Baseline			1	492	A1	Zahlen	s	81
12	230	Baseline			1	556	A1	Zahlen	r	82
12	324	Baseline			1	533	A2	Buchstaben	s	83
12	260	Baseline			1	432	A2	Buchstaben	r	84
12	203	Baseline			1	506	A2	Buchstaben	r	85
12	540	Baseline			1	444	A2	Buchstaben	r	86
12	282	Baseline			0	413	A1	Zahlen	s	87
12	123	Baseline			1	549	A2	Buchstaben	s	88
12	277	Baseline			1	480	A1	Zahlen	s	89
12	301	Baseline			1	495	A2	Buchstaben	s	90
12	544	Baseline			1	687	A1	Zahlen	s	91
12	427	Baseline			1	599	A1	Zahlen	r	92
12	412	Baseline			1	505	A1	Zahlen	r	93
12	324	Baseline			1	437	A2	Buchstaben	s	94
12	233	Baseline			1	534	A2	Buchstaben	r	95
12	287	Baseline			1	482	A2	Buchstaben	r	96
12	139	Baseline			0	620	A2	Buchstaben	r	97
12	277	Baseline			1	480	A2	Buchstaben	r	98
12	435	Baseline			1	600	A2	Buchstaben	r	99
12	296	Baseline			1	442	A2	Buchstaben	r	100
12	416	Baseline			1	470	A2	Buchstaben	r	101
12	479	Baseline			1	482	A1	Zahlen	s	102
12	302	Baseline			1	544	A2	Buchstaben	s	103
12	303	Baseline			1	385	A1	Zahlen	s	104
12	322	Baseline			1	491	A2	Buchstaben	s	105
12	318	Baseline			1	480	A1	Zahlen	s	106
12	322	Baseline			1	412	A2	Buchstaben	s	107
12	307	Baseline			1	493	A1	Zahlen	s	108
12	360	Baseline			0	623	A2	Buchstaben	s	109
12	343	Baseline			1	455	A1	Zahlen	s	110
12	330	Baseline			1	443	A2	Buchstaben	s	111
12	337	Baseline			1	450	A1	Zahlen	s	112
12	232	Baseline			1	501	A1	Zahlen	r	113
12	209	Baseline			1	607	A1	Zahlen	r	114
12	237	Baseline			1	403	A2	Buchstaben	s	115
12	111	Baseline			1	553	A2	Buchstaben	r	116
12	385	Baseline			0	344	A1	Zahlen	s	117
12	464	Baseline			0	387	A1	Zahlen	r	118
12	265	Baseline			1	445	A1	Zahlen	r	119
12	219	Baseline			1	449	A1	Zahlen	r	120
12	123	Baseline			0	532	A1	Zahlen	r	121
12	316	Baseline			1	454	A1	Zahlen	r	122
12	459	Baseline			1	615	A1	Zahlen	r	123
12	524	Baseline			1	468	A1	Zahlen	r	124
12	312	Baseline			1	482	A2	Buchstaben	s	125
12	244	Baseline			1	529	A2	Buchstaben	r	126
12	418	Baseline			0	479	A1	Zahlen	s	127
12	315	Baseline			1	405	A2	Buchstaben	s	128
12	339	Baseline			1	539	A2	Buchstaben	r	129
12	307	Baseline			1	493	A2	Buchstaben	r	130
12	319	Baseline			0	544	A2	Buchstaben	r	131
12	241	Baseline			1	638	A2	Buchstaben	r	132
12	312	Baseline			1	490	A2	Buchstaben	r	133
12	269	Baseline			1	481	A1	Zahlen	s	134
12	275	Baseline			1	463	A2	Buchstaben	s	135
12	274	Baseline			1	509	A2	Buchstaben	r	136
12	214	Baseline			1	380	A2	Buchstaben	r	137
12	261	Baseline			0	625	A2	Buchstaben	r	138
12	451	Baseline			1	583	A2	Buchstaben	r	139
12	557	Baseline			1	476	A2	Buchstaben	r	140
12	556	Baseline			1	476	A2	Buchstaben	r	141
12	287	Baseline			1	570	A1	Zahlen	s	142
12	424	Baseline			1	716	A2	Buchstaben	s	143
12	237	Baseline			1	546	A2	Buchstaben	r	144
12		Baseline			1	514	A1	Zahlen	NaN	1
12	297	Baseline			0	444	A2	Buchstaben	s	2
12	303	Baseline			0	465	A1	Zahlen	s	3
12	286	Baseline			1	545	A1	Zahlen	r	4
12	273	Baseline			1	444	A1	Zahlen	r	5
12	337	Baseline			1	522	A1	Zahlen	r	6
12	273	Baseline			1	475	A2	Buchstaben	s	7
12	312	Baseline			1	514	A1	Zahlen	s	8
12	265	Baseline			1	533	A2	Buchstaben	s	9
12	276	Baseline			1	512	A1	Zahlen	s	10
12	395	Baseline			1	457	A1	Zahlen	r	11
12	421	Baseline			1	523	A2	Buchstaben	s	12
12	482	Baseline			1	725	A1	Zahlen	s	13
12	380	Baseline			1	579	A1	Zahlen	r	14
12	569	Baseline			1	496	A1	Zahlen	r	15
12	274	Baseline			1	525	A1	Zahlen	r	16
12	237	Baseline			1	522	A1	Zahlen	r	17
12	251	Baseline			1	544	A1	Zahlen	r	18
12	330	Baseline			1	547	A2	Buchstaben	s	19
12	796	Baseline			1	489	A1	Zahlen	s	20
12	307	Baseline			1	397	A2	Buchstaben	s	21
12	28	Baseline			1	538	A2	Buchstaben	r	22
12	401	Baseline			1	503	A2	Buchstaben	r	23
12	232	Baseline			1	637	A2	Buchstaben	r	24
12	113	Baseline			1	459	A2	Buchstaben	r	25
12	246	Baseline			1	579	A2	Buchstaben	r	26
12	295	Baseline			1	482	A2	Buchstaben	r	27
12	580	Baseline			1	570	A1	Zahlen	s	28
12	286	Baseline			1	569	A2	Buchstaben	s	29
12	399	Baseline			1	597	A2	Buchstaben	r	30
12	241	Baseline			1	550	A1	Zahlen	s	31
12	519	Baseline			1	601	A2	Buchstaben	s	32
12	252	Baseline			1	585	A2	Buchstaben	r	33
12	648	Baseline			1	540	A1	Zahlen	s	34
12	684	Baseline			1	678	A2	Buchstaben	s	35
12	334	Baseline			1	519	A2	Buchstaben	r	36
12	258	Baseline			1	446	A2	Buchstaben	r	37
12	186	Baseline			1	513	A2	Buchstaben	r	38
12	210	Baseline			1	608	A1	Zahlen	s	39
12	243	Baseline			1	711	A1	Zahlen	r	40
12	295	Baseline			1	537	A1	Zahlen	r	41
12	344	Baseline			1	488	A1	Zahlen	r	42
12	323	Baseline			1	508	A1	Zahlen	r	43
12	300	Baseline			1	559	A1	Zahlen	r	44
12	300	Baseline			0	391	A2	Buchstaben	s	45
12	316	Baseline			1	662	A1	Zahlen	s	46
12	272	Baseline			1	596	A1	Zahlen	r	47
12	298	Baseline			1	523	A1	Zahlen	r	48
12	244	Baseline			1	593	A1	Zahlen	r	49
12	408	Baseline			0	1006	A1	Zahlen	r	50
12	272	Baseline			1	563	A2	Buchstaben	s	51
12	364	Baseline			1	564	A1	Zahlen	s	52
12	307	Baseline			1	740	A2	Buchstaben	s	53
12	234	Baseline			1	551	A1	Zahlen	s	54
12	489	Baseline			1	467	A2	Buchstaben	s	55
12	318	Baseline			1	536	A2	Buchstaben	r	56
12	666	Baseline			1	525	A2	Buchstaben	r	57
12	397	Baseline			1	627	A1	Zahlen	s	58
