subj	block	trial	task_cue	task	choice_resp	choiceRT	choice_acc	topnum	topsize	botnum	botsize	cong	task_resp	taskRT	task_acc	RSI	CSI	altRep	E1
128	1	1	N	N	d	836.65	0	7	24	4	56	i	j	2471.4	1	1000	1000	-1	0
128	1	2	P	P	f	1020.18	1	7	56	2	24	c	j	2237.5	1	1000	1000	1	0
128	1	3	P	P	f	1186.55	1	9	56	4	24	c	j	1235.92	1	100	100	0	0
128	1	4	N	N	d	819.63	0	3	24	7	56	c	n	1870.67	1	1000	1000	1	0
128	1	5	P	P	f	1269.09	1	2	56	8	24	i	j	1370.13	1	100	1000	1	0
128	1	6	P	P	f	801.89	1	7	56	3	24	c	j	1019.71	1	1000	1000	0	0
128	1	7	N	N	d	1769.63	0	8	56	2	24	c	j	1152.99	1	100	100	1	0
128	1	8	P	P	f	903.12	1	4	24	9	56	c	n	1369.66	1	1000	100	1	0
128	1	9	P	P	f	786.0	1	9	24	3	56	i	n	1185.88	1	1000	1000	0	0
128	1	10	N	N	d	869.68	0	2	56	8	24	i	n	2020.95	1	1000	100	1	0
128	1	11	N	N	d	886.56	0	3	24	7	56	c	n	1370.09	1	100	1000	0	0
128	1	12	P	P	f	1102.99	1	9	24	4	56	i	n	2254.47	1	100	1000	1	0
128	1	13	N	N	d	919.45	0	3	56	8	24	i	n	1403.59	1	100	100	1	0
128	1	14	P	P	f	935.91	1	4	24	9	56	c	n	4740.24	1	1000	1000	1	0
128	1	15	P	P	f	1269.81	1	2	56	9	24	i	j	2121.42	1	100	1000	0	0
128	1	16	P	P	f	752.95	1	4	56	9	24	i	j	1370.17	1	1000	100	0	0
128	1	17	N	N	d	952.76	0	9	24	2	56	i	j	2120.62	1	1000	1000	1	0
128	1	18	P	P	f	702.96	1	9	56	3	24	c	j	886.41	1	1000	100	1	0
128	1	19	N	N	d	953.5	0	9	24	4	56	i	j	1486.41	1	100	100	1	0
128	1	20	P	P	f	786.09	1	9	56	3	24	c	j	1286.57	1	100	1000	1	0
128	1	21	P	P	f	718.15	1	4	24	8	56	c	n	902.83	1	1000	100	0	0
128	1	22	P	P	f	1202.93	1	9	24	2	56	i	n	1953.87	1	100	1000	0	0
128	1	23	N	N	d	1269.17	0	9	24	3	56	i	j	1635.52	1	1000	100	1	0
128	1	24	P	P	f	969.55	1	2	24	8	56	c	n	1436.93	1	100	100	1	0
128	1	25	N	N	d	819.63	0	8	56	3	24	c	j	1152.95	1	1000	100	1	0
128	1	26	P	P	f	1954.09	1	4	56	7	24	i	j	3071.71	1	100	100	1	0
128	1	27	N	N	d	703.03	0	3	24	8	56	c	n	986.3	1	1000	100	1	0
128	1	28	P	P	f	1136.93	1	8	56	2	24	c	j	2404.18	1	100	100	1	0
128	1	29	P	P	f	1019.78	1	8	24	4	56	i	n	1553.69	1	100	100	0	0
128	1	30	N	N	d	1086.26	0	2	24	8	56	c	n	2636.6	1	100	100	1	0
128	1	31	N	N	d	836.25	0	7	56	3	24	c	j	952.84	1	1000	1000	0	0
128	1	32	N	N	d	719.33	0	7	56	4	24	c	j	1002.98	1	1000	100	0	0
128	1	33	N	N	d	952.89	0	3	56	9	24	i	n	3622.3	1	1000	1000	0	0
128	1	34	P	P	f	885.85	1	2	24	8	56	c	n	2186.92	1	100	1000	1	0
128	1	35	P	P	f	1220.28	1	3	24	9	56	c	n	2487.97	1	1000	1000	0	0
128	1	36	P	P	f	834.77	1	2	56	8	24	i	j	1954.01	1	100	100	0	0
128	1	37	P	P	f	752.84	1	3	56	8	24	i	j	1303.62	1	1000	1000	0	0
128	1	38	P	P	f	936.38	1	8	56	4	24	c	j	853.05	1	100	1000	0	0
128	1	39	N	N	d	734.44	0	2	24	7	56	c	n	1486.82	1	100	1000	1	0
128	1	40	N	N	d	769.27	0	7	56	3	24	c	j	935.96	1	100	100	0	0
128	1	41	N	N	d	735.82	0	4	56	7	24	i	j	1069.77	0	100	100	0	0
128	1	42	N	N	d	368.75	0	3	24	7	56	c	n	819.53	1	1000	100	0	1
128	1	43	N	N	d	368.94	0	4	56	8	24	i	j	869.77	0	1000	100	0	0
128	1	44	N	N	d	502.27	0	2	56	8	24	i	j	785.95	0	100	1000	0	1
128	1	45	P	P	f	752.65	1	7	24	4	56	i	n	3873.79	1	100	100	1	1
128	1	46	N	N	d	785.85	0	3	56	9	24	i	n	902.75	1	100	1000	1	0
128	1	47	P	P	f	702.41	1	9	24	2	56	i	n	819.61	1	1000	1000	1	0
128	1	48	N	N	d	686.02	0	8	56	4	24	c	j	869.81	1	100	1000	1	0
128	1	49	N	N	d	535.7	0	8	56	2	24	c	j	851.36	1	100	1000	0	0
128	1	50	N	N	d	468.65	0	8	24	3	56	i	j	1069.68	1	100	1000	0	0
128	1	51	P	P	f	803.32	1	2	56	9	24	i	j	969.62	1	1000	100	1	0
128	1	52	N	N	d	569.3	0	9	56	3	24	c	j	1002.67	1	1000	1000	1	0
128	1	53	P	P	f	768.89	1	9	24	2	56	i	n	1403.68	1	1000	100	1	0
128	1	54	P	P	f	769.0	1	3	24	9	56	c	n	919.23	1	100	1000	0	0
128	1	55	P	P	f	319.0	1	9	24	2	56	i	n	1287.16	1	1000	100	0	0
128	1	56	N	N	d	1352.9	0	4	56	7	24	i	n	2736.84	1	1000	1000	1	0
128	1	57	N	N	d	534.87	0	7	24	3	56	i	j	1019.64	1	100	100	0	0
128	1	58	N	N	d	469.05	0	2	24	7	56	c	n	1086.9	1	100	100	0	0
128	1	59	N	N	d	502.86	0	3	24	9	56	c	n	1286.72	1	1000	1000	0	0
128	1	60	P	P	f	552.19	1	4	56	9	24	i	j	1019.74	1	1000	1000	1	0
128	1	61	P	P	f	402.11	1	7	56	2	24	c	j	869.39	1	1000	100	0	0
128	1	62	P	P	f	717.79	1	4	24	7	56	c	n	1737.27	1	100	100	0	0
128	1	63	N	N	f	418.05	0	8	24	2	56	i	j	4790.44	1	100	1000	1	0
128	1	64	N	N	d	818.59	0	7	24	4	56	i	j	2371.27	1	1000	100	0	0
128	1	65	N	N	d	752.0	0	8	24	2	56	i	j	1303.14	1	1000	1000	0	0
128	2	1	P	P	f	1420.04	1	3	56	7	24	i	j	2938.32	1	100	100	-1	0
128	2	2	P	P	f	668.69	1	7	24	4	56	i	n	2554.63	1	1000	1000	0	0
128	2	3	P	P	f	402.47	1	2	56	7	24	i	j	1436.89	1	1000	1000	0	0
128	2	4	P	P	f	552.27	1	3	24	7	56	c	n	1319.88	1	1000	1000	0	0
128	2	5	N	N	f	869.38	0	7	56	2	24	c	j	2571.11	1	100	1000	1	0
128	2	6	P	P	f	685.81	1	4	24	8	56	c	n	1102.83	1	1000	1000	1	0
128	2	7	P	P	f	735.65	1	2	56	7	24	i	j	1403.3	1	100	1000	0	0
128	2	8	P	P	f	652.83	1	9	24	4	56	i	n	1970.34	1	1000	100	0	0
128	2	9	N	N	d	1153.15	0	2	24	8	56	c	n	1553.57	1	100	100	1	0
128	2	10	P	P	f	768.78	1	3	56	9	24	i	j	1486.33	1	100	1000	1	0
128	2	11	N	N	d	969.02	0	2	56	8	24	i	n	1002.19	1	100	1000	1	0
128	2	12	N	N	d	752.25	0	3	56	9	24	i	n	1836.98	1	1000	100	0	0
128	2	13	N	N	d	835.47	0	4	56	7	24	i	n	1402.83	1	100	100	0	0
128	2	14	N	N	d	685.7	0	9	24	3	56	i	j	1820.51	1	1000	100	0	0
128	2	15	P	P	f	852.62	1	9	24	4	56	i	n	1253.25	1	100	1000	1	0
128	2	16	N	N	d	819.27	0	3	56	7	24	i	n	1286.47	1	1000	1000	1	0
128	2	17	P	P	f	752.14	1	8	24	4	56	i	n	1335.44	1	1000	100	1	0
128	2	18	P	P	f	785.87	1	9	56	3	24	c	j	869.44	1	100	100	0	0
128	2	19	N	N	d	719.39	0	9	24	4	56	i	j	1219.84	1	1000	100	1	0
128	2	20	N	N	d	852.86	0	8	56	2	24	c	j	1820.42	1	1000	100	0	0
128	2	21	N	N	d	786.19	0	4	24	7	56	c	n	935.0	1	100	1000	0	0
128	2	22	P	P	f	1269.81	1	8	24	2	56	i	n	1603.59	1	100	100	1	0
128	2	23	P	P	f	884.82	1	3	24	9	56	c	n	1169.8	1	100	100	0	0
128	2	24	N	N	d	752.83	0	8	24	2	56	i	j	901.87	1	1000	1000	1	0
128	2	25	P	P	f	885.95	1	9	56	4	24	c	j	919.64	1	100	1000	1	0
128	2	26	P	P	f	752.78	1	3	56	9	24	i	j	2471.49	1	1000	100	0	0
128	2	27	N	N	d	819.38	0	8	24	2	56	i	j	1169.89	1	100	100	1	0
128	2	28	P	P	f	1570.15	1	4	56	7	24	i	j	1870.63	1	100	100	1	0
128	2	29	P	P	f	1002.61	1	9	24	3	56	i	n	852.16	1	100	1000	0	0
128	2	30	N	N	d	952.74	0	7	24	2	56	i	j	1703.74	1	100	1000	1	0
128	2	31	N	N	d	720.22	0	8	56	3	24	c	j	1236.34	1	100	100	0	0
128	2	32	N	N	d	1036.37	0	4	56	8	24	i	n	1670.42	1	100	1000	0	0
128	2	33	N	N	d	836.11	0	2	56	8	24	i	n	1036.39	1	1000	1000	0	0
128	2	34	N	N	d	769.72	0	8	56	4	24	c	j	1787.03	1	1000	1000	0	0
128	2	35	P	P	f	669.47	1	9	24	3	56	i	n	2085.68	1	1000	1000	1	0
128	2	36	P	P	f	936.07	1	4	24	8	56	c	n	902.64	1	100	1000	0	0
128	2	37	N	N	d	1053.01	0	9	56	2	24	c	j	1436.84	1	100	100	1	0
128	2	38	N	N	d	635.71	0	9	24	3	56	i	j	1553.27	1	100	100	0	0
128	2	39	P	P	f	1185.56	1	4	24	8	56	c	n	885.84	1	100	100	1	0
128	2	40	P	P	f	719.17	1	7	56	3	24	c	j	1254.04	1	100	1000	0	0
128	2	41	P	P	f	952.98	1	8	24	4	56	i	n	1670.32	1	100	100	0	0
128	2	42	N	N	d	852.94	0	3	24	7	56	c	n	2170.37	1	100	1000	1	0
128	2	43	P	P	f	869.44	1	7	56	4	24	c	j	2838.3	1	1000	100	1	0
128	2	44	P	P	f	619.12	1	9	56	2	24	c	j	902.62	1	1000	1000	0	0
128	2	45	N	N	d	852.77	0	4	24	7	56	c	n	1152.68	1	1000	100	1	0
128	2	46	N	N	d	435.94	0	2	24	9	56	c	n	886.18	1	1000	1000	0	0
128	2	47	P	P	f	886.14	1	9	56	4	24	c	j	1353.52	1	100	100	1	0
128	2	48	P	P	f	836.18	1	3	24	7	56	c	n	852.63	1	1000	100	0	0
128	2	49	P	P	f	736.17	1	2	56	9	24	i	j	1168.82	1	100	100	0	0
128	2	50	P	P	f	753.24	1	7	56	3	24	c	j	719.06	1	1000	100	0	0
128	2	51	N	N	d	985.85	0	9	56	2	24	c	j	952.91	1	1000	1000	1	0
128	2	52	P	P	d	535.82	1	7	56	4	24	c	j	2805.18	1	1000	1000	1	0
128	2	53	N	N	d	1419.46	0	3	56	8	24	i	n	1788.0	1	100	100	1	0
128	2	54	N	N	d	1186.54	0	9	24	2	56	i	j	1369.86	1	1000	1000	0	0
128	2	55	P	P	f	719.75	1	3	24	9	56	c	n	886.25	1	1000	100	1	0
128	2	56	N	N	d	985.92	0	7	56	2	24	c	j	1770.34	1	1000	100	1	0
128	2	57	P	P	f	819.35	1	4	24	7	56	c	n	852.51	1	100	1000	1	0
128	2	58	N	N	d	1086.06	0	2	56	9	24	i	n	2521.26	1	1000	100	1	0
128	2	59	N	N	d	752.39	0	3	24	7	56	c	n	935.84	1	1000	100	0	0
128	2	60	N	N	d	602.58	0	2	24	7	56	c	n	1086.16	1	100	100	0	0
128	2	61	N	N	d	602.32	0	7	56	3	24	c	j	1670.21	1	100	1000	0	0
128	2	62	N	N	d	768.68	0	9	24	2	56	i	j	1786.98	1	100	1000	0	0
128	2	63	P	P	f	969.33	1	4	56	8	24	i	j	1920.85	1	1000	1000	1	0
128	2	64	N	N	d	1353.4	0	2	24	8	56	c	n	1835.63	1	1000	1000	1	0
128	2	65	P	P	f	752.72	1	3	56	7	24	i	j	1203.24	1	1000	100	1	0
128	3	1	N	N	d	1253.63	0	9	56	4	24	c	j	2270.95	1	1000	1000	-1	0
128	3	2	N	N	d	1170.31	0	2	56	8	24	i	n	901.43	1	100	1000	0	0
128	3	3	P	P	f	1019.3	1	3	56	7	24	i	j	2254.2	1	1000	100	1	0
128	3	4	P	P	f	969.83	1	2	24	9	56	c	n	1520.2	1	1000	100	0	0
128	3	5	P	P	f	885.41	1	8	24	4	56	i	n	1186.15	1	100	100	0	0
128	3	6	N	N	d	919.68	0	3	24	7	56	c	n	3338.4	1	1000	1000	1	0
128	3	7	N	N	d	584.89	0	4	24	7	56	c	n	1069.46	1	1000	1000	0	0
128	3	8	N	N	d	385.67	0	8	24	2	56	i	j	1169.73	1	1000	1000	0	0
128	3	9	P	P	f	869.71	1	3	56	7	24	i	j	1403.08	1	1000	1000	1	0
128	3	10	P	P	f	569.56	1	4	24	7	56	c	n	1053.21	1	100	1000	0	0
128	3	11	P	P	f	1152.92	1	9	56	2	24	c	j	1286.57	1	1000	1000	0	0
128	3	12	N	N	d	769.12	0	7	56	3	24	c	j	1553.41	1	100	1000	1	0
128	3	13	N	N	d	735.82	0	8	56	4	24	c	j	1270.99	1	100	100	0	0
128	3	14	P	P	f	669.12	1	9	24	2	56	i	n	1520.55	1	1000	1000	1	0
128	3	15	N	N	d	936.32	0	7	24	4	56	i	j	2271.11	1	1000	1000	1	0
128	3	16	P	P	f	836.04	1	9	56	2	24	c	j	818.93	1	100	1000	1	0
128	3	17	N	N	d	836.76	0	7	56	3	24	c	j	1435.58	1	1000	100	1	0
128	3	18	N	N	d	585.83	0	9	24	4	56	i	j	1620.47	1	100	1000	0	0
128	3	19	P	P	f	986.64	1	3	56	7	24	i	j	1487.38	1	100	1000	1	0
128	3	20	N	N	d	918.84	0	9	24	4	56	i	j	1468.91	1	100	1000	1	0
128	3	21	P	P	f	685.9	1	9	56	2	24	c	j	1069.31	1	1000	1000	1	0
128	3	22	P	P	f	836.35	1	8	56	4	24	c	j	1253.03	1	100	1000	0	0
128	3	23	P	P	f	435.58	1	2	56	8	24	i	j	1303.31	1	1000	100	0	0
128	3	24	N	N	d	835.8	0	3	56	8	24	i	n	1637.19	1	1000	100	1	0
128	3	25	N	N	d	435.91	0	7	56	4	24	c	j	1153.25	1	100	1000	0	0
128	3	26	P	P	f	986.49	1	8	24	3	56	i	n	1236.43	1	100	1000	1	0
128	3	27	P	P	f	1069.32	1	4	56	9	24	i	j	1170.31	1	100	1000	0	0
128	3	28	N	N	d	736.44	0	2	24	8	56	c	n	1218.89	1	1000	100	1	0
128	3	29	P	P	f	1269.56	1	3	24	7	56	c	n	1620.58	1	1000	1000	1	0
128	3	30	P	P	f	702.38	1	8	24	4	56	i	n	1518.86	1	1000	100	0	0
128	3	31	P	P	f	718.63	1	3	24	9	56	c	n	852.07	1	1000	1000	0	0
128	3	32	N	N	d	919.44	0	2	24	8	56	c	n	1236.91	1	100	100	1	0
128	3	33	N	N	d	851.81	0	4	24	8	56	c	n	1686.95	1	1000	100	0	0
128	3	34	N	N	d	485.45	0	3	24	7	56	c	n	669.01	1	100	100	0	0
128	3	35	N	N	d	869.66	0	2	56	8	24	i	n	1119.6	1	1000	1000	0	0
128	3	36	N	N	d	1920.63	0	8	56	4	24	c	j	1486.57	1	1000	1000	0	0
128	3	37	P	P	f	985.76	1	7	56	2	24	c	j	1102.78	1	100	100	1	0
128	3	38	N	N	d	852.42	0	4	56	8	24	i	n	1119.59	1	100	100	1	0
128	3	39	N	N	d	886.24	0	2	56	7	24	i	n	1585.72	1	1000	100	0	0
128	3	40	P	P	f	752.55	1	9	24	4	56	i	n	1069.12	1	100	100	1	0
128	3	41	P	P	f	1036.64	1	2	56	7	24	i	j	1637.45	1	100	100	0	0
128	3	42	N	N	d	886.65	0	3	56	9	24	i	n	1420.59	1	1000	1000	1	0
128	3	43	P	P	f	769.24	1	4	24	9	56	c	n	1887.01	1	100	1000	1	0
128	3	44	P	P	f	1019.63	1	7	56	2	24	c	j	1520.55	1	1000	100	0	0
128	3	45	P	P	f	869.11	1	8	24	4	56	i	n	2488.05	1	1000	1000	0	0
128	3	46	P	P	f	918.82	1	7	56	2	24	c	j	1136.51	1	100	100	0	0
128	3	47	N	N	d	919.74	0	3	24	7	56	c	n	1237.1	1	100	1000	1	0
128	3	48	N	N	d	501.17	0	2	24	8	56	c	n	635.77	1	100	1000	0	0
128	3	49	P	P	f	935.76	1	4	56	9	24	i	j	1253.14	1	100	100	1	0
128	3	50	N	N	d	869.54	0	8	24	2	56	i	j	1220.24	1	1000	100	1	0
128	3	51	N	N	d	818.94	0	4	56	8	24	i	n	1136.19	1	100	100	0	0
128	3	52	P	P	f	1486.74	1	3	24	9	56	c	n	1036.29	1	1000	100	1	0
128	3	53	N	N	d	669.36	0	4	56	7	24	i	n	1319.17	1	100	1000	1	0
128	3	54	N	N	d	669.3	0	7	24	2	56	i	j	1053.2	1	1000	100	0	0
128	3	55	P	P	f	651.61	1	9	24	3	56	i	n	1103.23	1	1000	100	1	0
128	3	56	N	N	d	885.88	0	7	24	4	56	i	j	1168.22	1	100	100	1	0
128	3	57	N	N	d	669.02	0	9	56	3	24	c	j	1753.74	1	1000	100	0	0
128	3	58	P	P	f	869.32	1	2	24	7	56	c	n	1001.4	1	100	100	1	0
128	3	59	P	P	f	602.22	1	8	24	3	56	i	n	2304.28	1	100	1000	0	0
128	3	60	P	P	f	1019.68	1	4	24	8	56	c	n	902.63	1	100	100	0	0
128	3	61	P	P	f	485.9	1	2	56	7	24	i	j	1953.79	1	1000	1000	0	0
128	3	62	N	N	d	736.45	0	8	56	4	24	c	j	1185.36	1	1000	1000	1	0
128	3	63	P	P	f	1336.33	1	9	56	2	24	c	j	1520.1	1	1000	100	1	0
128	3	64	N	N	d	936.04	0	7	56	3	24	c	j	1821.02	1	100	100	1	0
128	3	65	N	N	d	568.03	0	7	24	4	56	i	j	1603.52	1	100	100	0	0
128	4	1	N	N	d	2287.78	0	8	24	3	56	i	j	1253.6	1	100	1000	-1	0
128	4	2	N	N	d	652.5	0	7	24	4	56	i	j	936.17	1	1000	1000	0	0
128	4	3	P	P	f	835.02	1	2	56	7	24	i	j	986.17	1	100	1000	1	0
128	4	4	N	N	d	952.93	0	4	24	9	56	c	n	1269.94	1	100	100	1	0
128	4	5	P	P	f	685.96	1	3	24	9	56	c	n	936.17	1	1000	1000	1	0
128	4	6	P	P	f	1002.89	1	9	24	4	56	i	n	1436.6	1	100	100	0	0
128	4	7	P	P	f	585.54	1	3	56	9	24	i	j	1102.97	1	100	1000	0	0
128	4	8	N	N	d	969.44	0	7	56	2	24	c	j	3288.79	1	100	1000	1	0
128	4	9	N	N	d	519.36	0	4	56	8	24	i	n	1319.12	1	100	1000	0	0
128	4	10	N	N	d	419.34	0	2	56	8	24	i	n	1103.59	1	100	100	0	0
128	4	11	P	P	f	985.63	1	8	24	3	56	i	n	886.17	1	100	1000	1	0
128	4	12	N	N	d	769.47	0	7	24	2	56	i	j	2137.61	1	1000	1000	1	0
128	4	13	N	N	d	736.17	0	3	56	8	24	i	n	986.47	1	1000	1000	0	0
128	4	14	N	N	d	618.68	0	4	24	8	56	c	n	1470.2	1	100	100	0	0
128	4	15	P	P	f	952.78	1	3	24	7	56	c	n	953.02	1	100	100	1	0
128	4	16	N	N	d	869.18	0	9	56	4	24	c	j	968.82	1	1000	100	1	0
128	4	17	N	N	d	936.29	0	3	24	7	56	c	n	1320.54	1	1000	1000	0	0
128	4	18	P	P	f	1136.12	1	4	56	8	24	i	j	2287.61	1	1000	1000	1	0
128	4	19	P	P	f	736.08	1	9	56	3	24	c	j	769.16	1	1000	1000	0	0
128	4	20	P	P	f	1002.93	1	2	24	7	56	c	n	1736.98	1	100	100	0	0
128	4	21	N	N	d	1152.78	0	7	24	3	56	i	j	1420.58	1	100	1000	1	0
128	4	22	N	N	d	1036.21	0	7	56	4	24	c	j	1286.84	1	1000	100	0	0
128	4	23	P	P	f	1118.87	1	8	56	3	24	c	j	1303.27	1	100	100	1	0
128	4	24	N	N	d	902.75	0	4	56	9	24	i	n	1119.99	1	100	100	1	0
128	4	25	P	P	f	752.62	1	9	56	2	24	c	j	751.43	1	1000	1000	1	0
128	4	26	N	N	d	1136.45	0	8	24	3	56	i	j	2271.29	1	100	100	1	0
128	4	27	N	N	d	969.72	0	2	56	7	24	i	n	1053.44	1	1000	100	0	0
128	4	28	P	P	f	836.63	1	4	56	9	24	i	j	1636.98	1	1000	100	1	0
128	4	29	P	P	f	719.34	1	2	56	9	24	i	j	1002.37	1	1000	100	0	0
128	4	30	N	N	f	719.41	0	8	56	4	24	c	j	2421.1	1	100	100	1	0
128	4	31	N	N	d	819.34	0	2	24	9	56	c	n	3489.17	1	100	1000	0	0
128	4	32	N	N	d	885.87	0	8	56	3	24	c	j	1269.83	1	1000	1000	0	0
128	4	33	N	N	d	769.39	0	7	56	2	24	c	j	753.14	1	100	1000	0	0
128	4	34	P	P	f	919.13	1	7	24	4	56	i	n	1637.04	1	1000	1000	1	0
128	4	35	P	P	f	435.58	1	9	24	3	56	i	n	986.08	1	1000	1000	0	0
128	4	36	P	P	f	936.28	1	7	24	2	56	i	n	1286.97	1	1000	100	0	0
128	4	37	N	N	d	1419.88	0	3	56	7	24	i	n	1385.62	1	100	1000	1	0
128	4	38	N	N	d	685.88	0	4	24	8	56	c	n	902.86	1	1000	100	0	0
128	4	39	P	P	f	1003.17	1	9	56	2	24	c	j	1052.98	1	1000	100	1	0
128	4	40	N	N	d	768.56	0	8	56	4	24	c	j	1702.15	1	1000	1000	1	0
128	4	41	P	P	f	1103.01	1	9	56	2	24	c	j	1170.15	1	100	1000	1	0
128	4	42	N	N	d	986.24	0	4	24	9	56	c	n	968.86	1	100	1000	1	0
128	4	43	P	P	f	1269.81	1	2	56	7	24	i	j	869.33	1	100	100	1	0
128	4	44	P	P	f	736.12	1	9	56	3	24	c	j	752.59	1	1000	100	0	0
128	4	45	N	N	d	836.53	0	4	56	9	24	i	n	1236.68	1	1000	1000	1	0
128	4	46	N	N	d	736.0	0	9	24	3	56	i	j	1102.42	1	100	1000	0	0
128	4	47	N	N	d	785.96	0	7	24	2	56	i	j	2004.2	1	100	100	0	0
128	4	48	P	P	f	786.02	1	3	24	8	56	c	n	1102.93	1	1000	100	1	0
128	4	49	P	P	f	919.6	1	2	56	7	24	i	j	1953.61	1	100	100	0	0
128	4	50	N	N	d	785.18	0	4	24	8	56	c	n	1119.68	1	1000	100	1	0
128	4	51	P	P	f	1952.65	1	9	24	3	56	i	n	2237.95	1	100	100	1	0
128	4	52	N	N	d	719.49	0	2	56	7	24	i	n	1152.84	1	1000	100	1	0
128	4	53	N	N	d	736.69	0	7	24	3	56	i	j	1101.62	1	1000	100	0	0
128	4	54	P	P	f	852.83	1	2	24	7	56	c	n	1269.87	1	100	1000	1	0
128	4	55	P	P	f	619.16	1	8	56	3	24	c	j	819.24	1	100	1000	0	0
128	4	56	N	N	d	902.05	0	4	24	7	56	c	n	1169.82	1	1000	1000	1	0
128	4	57	N	N	d	435.67	0	7	56	3	24	c	j	1053.14	1	100	100	0	0
128	4	58	P	P	f	819.5	1	7	24	2	56	i	n	1920.97	1	1000	100	1	0
128	4	59	P	P	f	1052.67	1	3	24	9	56	c	n	1251.63	1	1000	1000	0	0
128	4	60	P	P	f	685.85	1	2	24	9	56	c	n	969.54	1	1000	100	0	0
128	4	61	P	P	f	819.44	1	3	56	7	24	i	j	952.32	1	1000	1000	0	0
128	4	62	P	P	f	936.77	1	8	24	2	56	i	n	1119.79	1	100	1000	0	0
128	4	63	P	P	f	970.1	1	3	24	7	56	c	n	869.43	1	100	1000	0	0
128	4	64	P	P	f	819.46	1	7	56	2	24	c	j	1069.84	1	100	100	0	0
128	4	65	N	N	d	869.39	0	9	24	4	56	i	j	1453.42	1	1000	100	1	0
128	5	1	P	P	f	1520.11	1	8	24	2	56	i	n	1336.76	1	1000	100	-1	0
128	5	2	P	P	f	1353.46	1	9	24	4	56	i	n	1119.88	1	100	100	0	0
128	5	3	N	N	d	818.63	0	3	56	7	24	i	n	1069.49	1	100	1000	1	0
128	5	4	N	N	d	585.79	0	9	56	4	24	c	j	1219.38	1	100	1000	0	0
128	5	5	N	N	d	902.81	0	2	24	8	56	c	n	1102.24	1	1000	1000	0	0
128	5	6	P	P	f	735.81	1	4	56	8	24	i	j	936.39	1	1000	100	1	0
128	5	7	N	N	d	852.31	0	8	56	2	24	c	j	1002.89	1	1000	1000	1	0
128	5	8	P	P	f	1103.0	1	3	56	9	24	i	j	819.38	1	100	1000	1	0
128	5	9	P	P	f	852.23	1	7	56	4	24	c	j	1020.04	1	100	1000	0	0
128	5	10	N	N	d	886.2	0	3	56	9	24	i	n	1369.99	1	1000	1000	1	0
128	5	11	P	P	f	1152.93	1	4	24	9	56	c	n	1937.31	1	1000	1000	1	0
128	5	12	P	P	f	802.95	1	9	24	2	56	i	n	1369.97	1	1000	1000	0	0
128	5	13	P	P	f	1253.32	1	4	24	9	56	c	n	853.2	1	100	1000	0	0
128	5	14	N	N	d	969.53	0	9	56	3	24	c	j	969.82	1	1000	100	1	0
128	5	15	N	N	d	769.16	0	2	24	9	56	c	n	2186.36	1	100	1000	0	0
128	5	16	P	P	f	1235.93	1	8	56	3	24	c	j	5473.96	1	1000	1000	1	0
128	5	17	N	N	d	886.08	0	9	24	4	56	i	j	919.85	1	100	1000	1	0
128	5	18	N	N	d	719.24	0	8	24	3	56	i	j	969.55	1	1000	1000	0	0
128	5	19	P	P	f	869.57	1	9	56	2	24	c	j	785.9	1	100	100	1	0
128	5	20	P	P	f	936.12	1	7	24	4	56	i	n	1119.66	1	1000	100	0	0
128	5	21	P	P	f	668.89	1	3	24	9	56	c	n	919.54	1	1000	100	0	0
128	5	22	P	P	f	801.93	1	2	56	8	24	i	j	1036.39	1	1000	100	0	0
128	5	23	P	P	f	1553.97	1	7	56	3	24	c	j	1835.93	1	1000	1000	0	0
128	5	24	N	N	d	802.34	0	8	56	4	24	c	j	1002.32	1	100	100	1	0
128	5	25	N	N	d	502.46	0	3	56	8	24	i	n	1336.52	1	100	1000	0	0
128	5	26	N	N	d	819.38	0	7	56	4	24	c	j	1453.16	1	1000	100	0	0
128	5	27	N	N	d	1017.99	0	3	24	7	56	c	n	1219.3	1	100	100	0	0
128	5	28	N	N	d	802.67	0	9	56	4	24	c	j	986.09	1	1000	1000	0	0
128	5	29	P	P	f	719.21	1	2	24	9	56	c	n	936.41	1	100	100	1	0
128	5	30	P	P	f	552.44	1	4	24	9	56	c	n	501.96	1	100	100	0	0
128	5	31	P	P	f	685.85	1	3	56	8	24	i	j	1151.57	1	100	1000	0	0
128	5	32	N	N	d	835.28	0	9	24	4	56	i	j	1103.4	1	100	100	1	0
128	5	33	P	P	f	768.98	1	7	56	3	24	c	j	819.39	1	1000	100	1	0
128	5	34	N	N	d	905.47	0	8	24	4	56	i	j	1670.52	1	1000	1000	1	0
128	5	35	P	P	f	769.26	1	8	56	3	24	c	j	1620.11	1	100	1000	1	0
128	5	36	P	P	f	619.69	1	7	56	2	24	c	j	835.99	1	1000	100	0	0
128	5	37	N	N	d	969.25	0	4	56	9	24	i	n	1336.27	1	100	100	1	0
128	5	38	P	P	f	685.73	1	3	56	7	24	i	j	969.73	1	1000	1000	1	0
128	5	39	P	P	f	401.95	1	2	56	8	24	i	j	869.34	1	1000	1000	0	0
128	5	40	N	N	d	2270.81	0	9	56	4	24	c	j	902.88	1	100	1000	1	0
128	5	41	P	P	f	602.55	1	2	24	9	56	c	n	868.62	1	1000	100	1	0
128	5	42	P	P	f	552.26	1	9	56	4	24	c	j	902.52	1	100	100	0	0
128	5	43	N	N	d	1269.85	0	8	24	3	56	i	j	1286.61	1	1000	100	1	0
128	5	44	N	N	d	452.42	0	4	24	8	56	c	n	1136.45	1	1000	100	0	0
128	5	45	N	N	d	402.33	0	2	56	8	24	i	n	919.49	1	1000	1000	0	0
128	5	46	P	P	f	1052.81	1	9	24	4	56	i	n	1386.54	1	1000	1000	1	0
128	5	47	P	P	f	1085.84	1	7	24	2	56	i	n	1102.86	1	100	1000	0	0
128	5	48	N	N	f	552.36	0	4	24	9	56	c	n	1503.14	1	100	1000	1	0
128	5	49	P	P	f	1120.14	1	2	56	9	24	i	j	1953.93	1	100	100	1	0
128	5	50	P	P	f	751.69	1	3	24	9	56	c	n	1636.7	1	1000	1000	0	0
128	5	51	N	N	d	903.04	0	2	24	8	56	c	n	1203.14	1	1000	100	1	0
128	5	52	N	N	d	569.2	0	8	24	4	56	i	j	1219.72	1	100	1000	0	0
128	5	53	P	P	f	1420.46	1	7	24	3	56	i	n	1169.45	1	100	1000	1	0
128	5	54	N	N	d	1036.43	0	2	24	9	56	c	n	1153.11	1	100	100	1	0
128	5	55	N	N	d	668.7	0	8	24	4	56	i	j	1253.24	1	1000	100	0	0
128	5	56	N	N	d	802.64	0	2	56	8	24	i	n	1236.63	1	100	100	0	0
128	5	57	N	N	d	936.2	0	9	56	3	24	c	j	1337.51	1	100	100	0	0
128	5	58	N	N	d	802.48	0	8	24	4	56	i	j	1236.79	1	100	100	0	0
128	5	59	N	N	d	802.5	0	3	56	8	24	i	n	2788.24	1	1000	100	0	0
128	5	60	P	P	f	919.23	1	8	24	4	56	i	n	1203.54	1	100	100	1	0
128	5	61	N	N	d	1553.77	0	3	24	7	56	c	n	2354.59	1	1000	1000	1	0
128	5	62	P	P	f	785.63	1	2	24	7	56	c	n	886.13	1	100	1000	1	0
128	5	63	N	N	d	1053.16	0	4	56	7	24	i	n	1102.89	1	1000	100	1	0
128	5	64	P	P	f	819.3	1	9	24	2	56	i	n	1135.06	1	1000	100	1	0
128	5	65	P	P	f	869.44	1	3	56	9	24	i	j	952.77	1	100	100	0	0
128	6	1	N	N	d	1302.96	0	4	24	9	56	c	n	1252.91	1	1000	1000	-1	0
128	6	2	P	P	f	1002.92	1	9	56	2	24	c	j	970.52	1	1000	1000	1	0
128	6	3	N	N	d	719.41	0	4	24	8	56	c	n	1003.06	1	1000	100	1	0
128	6	4	P	P	f	1334.6	1	7	24	2	56	i	n	1636.73	1	100	1000	1	0
128	6	5	P	P	f	784.67	1	3	24	9	56	c	n	868.9	1	1000	1000	0	0
128	6	6	P	P	f	1202.98	1	9	56	4	24	c	j	1119.82	1	100	100	0	0
128	6	7	P	P	f	952.94	1	3	56	9	24	i	j	986.63	1	100	100	0	0
128	6	8	N	N	d	1469.92	0	2	24	9	56	c	n	902.82	1	100	1000	1	0
128	6	9	P	P	f	885.77	1	9	24	4	56	i	n	1053.41	1	100	100	1	0
128	6	10	N	N	d	886.06	0	8	24	3	56	i	j	902.95	1	1000	1000	1	0
128	6	11	N	N	d	534.34	0	7	24	4	56	i	j	1220.21	1	100	100	0	0
128	6	12	P	P	f	586.0	1	3	24	7	56	c	n	935.93	1	100	100	1	0
128	6	13	N	N	d	569.14	0	2	56	8	24	i	n	1002.77	1	100	100	1	0
128	6	14	N	N	d	535.57	0	8	24	3	56	i	j	1036.45	1	1000	1000	0	0
128	6	15	P	P	f	769.27	1	8	56	4	24	c	j	769.34	1	100	1000	1	0
128	6	16	N	N	d	735.75	0	8	24	3	56	i	j	852.95	1	100	1000	1	0
128	6	17	N	N	d	736.08	0	4	56	8	24	i	n	1103.13	1	1000	100	0	0
128	6	18	P	P	f	836.0	1	2	56	9	24	i	j	2120.73	1	100	1000	1	0
128	6	19	P	P	f	11180.92	1	7	56	4	24	c	j	1369.46	1	100	1000	0	0
128	6	20	P	P	f	969.46	1	3	24	8	56	c	n	1352.51	1	1000	100	0	0
128	6	21	N	N	d	867.68	0	4	56	8	24	i	n	1269.69	1	1000	100	1	0
128	6	22	P	P	f	802.22	1	2	56	9	24	i	j	1019.4	1	1000	1000	1	0
128	6	23	P	P	f	6259.31	1	7	24	3	56	i	n	902.43	1	100	1000	0	0
128	6	24	P	P	f	1770.55	1	2	24	7	56	c	n	1035.96	1	100	100	0	0
128	6	25	N	N	d	1069.89	0	7	56	4	24	c	j	1436.85	1	1000	1000	1	0
128	6	26	P	P	f	1754.16	1	2	56	7	24	i	j	1370.11	1	100	100	1	0
128	6	27	P	P	f	819.17	1	8	24	4	56	i	n	986.6	1	1000	100	0	0
128	6	28	N	N	d	934.64	0	8	24	2	56	i	j	1120.7	1	100	100	1	0
128	6	29	N	N	d	735.21	0	4	56	7	24	i	n	1136.56	1	100	1000	0	0
128	6	30	N	N	d	918.98	0	9	56	2	24	c	j	1336.85	1	100	100	0	0
128	6	31	P	P	f	1553.05	1	7	56	3	24	c	j	1136.24	1	1000	100	1	0
128	6	32	P	P	f	1253.12	1	7	56	2	24	c	j	935.97	1	1000	100	0	0
128	6	33	P	P	f	819.34	1	9	24	4	56	i	n	1369.97	1	100	100	0	0
128	6	34	N	N	d	935.87	0	3	56	9	24	i	n	1169.48	1	100	1000	1	0
128	6	35	P	P	f	802.8	1	2	24	8	56	c	n	886.0	1	1000	1000	1	0
128	6	36	N	N	d	819.47	0	9	56	3	24	c	j	1086.43	1	100	100	1	0
128	6	37	N	N	d	1086.7	0	9	56	4	24	c	j	2120.93	1	1000	1000	0	0
128	6	38	N	N	d	1252.72	0	3	56	8	24	i	n	952.79	1	100	100	0	0
128	6	39	N	N	d	869.53	0	9	56	4	24	c	j	1470.15	1	100	1000	0	0
128	6	40	N	N	d	1002.56	0	3	24	7	56	c	n	1503.65	1	100	100	0	0
128	6	41	P	P	f	869.36	1	7	56	4	24	c	j	1052.99	1	100	100	1	0
128	6	42	P	P	f	869.32	1	3	24	7	56	c	n	819.26	1	100	1000	0	0
128	6	43	P	P	f	1085.95	1	2	56	8	24	i	j	1787.21	1	1000	1000	0	0
128	6	44	N	N	d	1002.32	0	3	56	9	24	i	n	1186.81	1	1000	1000	1	0
128	6	45	N	N	d	936.13	0	8	56	2	24	c	j	1736.85	1	1000	100	0	0
128	6	46	P	P	f	702.57	1	7	24	3	56	i	n	1236.36	1	1000	100	1	0
128	6	47	P	P	f	702.61	1	2	56	9	24	i	j	1086.39	1	1000	100	0	0
128	6	48	P	P	f	701.47	1	8	24	4	56	i	n	852.47	1	1000	1000	0	0
128	6	49	N	N	d	902.92	0	8	56	3	24	c	j	1119.11	1	100	1000	1	0
128	6	50	N	N	d	885.61	0	9	24	2	56	i	j	2170.53	1	100	1000	0	0
128	6	51	N	N	d	884.89	0	3	56	8	24	i	n	1086.19	1	1000	1000	0	0
128	6	52	P	P	f	1236.73	1	2	24	8	56	c	n	952.71	1	1000	100	1	0
128	6	53	P	P	f	1336.65	1	9	56	3	24	c	j	1402.58	1	1000	1000	0	0
128	6	54	N	N	d	952.55	0	7	56	4	24	c	j	1953.64	1	1000	100	1	0
128	6	55	P	P	f	869.7	1	2	24	7	56	c	n	902.57	1	100	1000	1	0
128	6	56	P	P	f	802.98	1	3	56	9	24	i	j	936.0	1	100	1000	0	0
128	6	57	N	N	d	802.26	0	8	24	4	56	i	j	1536.03	1	1000	100	1	0
128	6	58	P	P	f	819.56	1	2	56	7	24	i	j	935.08	1	1000	100	1	0
128	6	59	N	N	d	1002.98	0	3	24	9	56	c	n	1002.84	1	1000	1000	1	0
128	6	60	N	N	d	969.52	0	4	24	8	56	c	n	1236.6	1	1000	1000	0	0
128	6	61	P	P	f	936.52	1	9	24	2	56	i	n	1486.98	1	1000	1000	1	0
128	6	62	N	N	d	902.85	0	4	24	8	56	c	n	1036.53	1	100	100	1	0
128	6	63	N	N	d	869.26	0	2	24	7	56	c	n	1351.59	1	1000	100	0	0
128	6	64	N	N	d	985.86	0	8	24	3	56	i	j	1053.65	1	1000	100	0	0
128	6	65	N	N	d	1119.4	0	2	24	8	56	c	n	1086.31	1	100	1000	0	0
