"subj" "block" "trial" "task_cue" "task" "choice_resp" "choiceRT" "choice_acc" "topnum" "topsize" "botnum" "botsize" "cong" "task_resp" "taskRT" "task_acc" "RSI" "CSI" "altRep" "E1" "sr" "trialCumul"
"231" 1 1 "?" "N" "f" 737.36 NA 3 24 8 56 "c" "n" 904.61 1 1000 100 "-1" 0 -1 1
"231" 1 2 "?" "N" "f" 1158.17 NA 4 24 7 56 "c" "n" 615.48 1 1000 1000 "0" 0 0 2
"231" 1 3 "?" "N" "f" 1709.52 NA 8 56 3 24 "c" "j" 1179.51 1 100 100 "0" 0 0 3
"231" 1 4 "?" "P" "d" -95.72 NA 9 56 2 24 "c" "j" 1920.27 1 1000 1000 "1" 0 1 4
"231" 1 5 "?" "P" "d" 750.79 NA 3 24 9 56 "c" "n" 873.54 1 100 1000 "0" 0 0 5
"231" 1 6 "?" "N" "f" 586.58 NA 4 24 8 56 "c" "n" 1759.9 1 100 100 "1" 0 1 6
"231" 1 7 "?" "P" "d" 1.39 NA 9 56 2 24 "c" "j" 1287.37 1 1000 100 "1" 0 1 7
"231" 1 8 "?" "N" "f" 807.52 NA 3 24 9 56 "c" "n" 333.66 1 1000 1000 "1" 0 1 8
"231" 1 9 "?" "N" "f" 473.03 NA 8 56 4 24 "c" "j" 896.75 1 1000 100 "0" 0 0 9
"231" 1 10 "?" "P" "d" 2202.01 NA 8 24 3 56 "i" "n" 1267.62 1 100 100 "1" 0 1 10
"231" 1 11 "?" "N" "f" 236.4 NA 7 56 2 24 "c" "j" 1220.15 1 1000 100 "1" 0 1 11
"231" 1 12 "?" "P" "d" 267.49 NA 4 24 9 56 "c" "n" 1289.01 1 1000 1000 "1" 0 1 12
"231" 1 13 "?" "N" "f" -238.34 NA 8 24 3 56 "i" "j" 1788.64 1 1000 1000 "1" 0 1 13
"231" 1 14 "?" "N" "f" -306.42 NA 9 56 4 24 "c" "j" 1170.35 1 1000 100 "0" 0 0 14
"231" 1 15 "?" "N" "f" 2889.72 NA 3 56 8 24 "i" "n" 690.6 1 100 1000 "0" 0 0 15
"231" 1 16 "?" "P" "d" -505.95 NA 7 56 2 24 "c" "j" 1082.76 1 1000 1000 "1" 0 1 16
"231" 1 17 "?" "P" "d" 43.63 NA 4 56 9 24 "i" "j" 1542.11 1 1000 100 "0" 0 0 17
"231" 1 18 "?" "N" "f" 789.27 NA 3 56 7 24 "i" "n" 1256.52 1 1000 100 "1" 0 1 18
"231" 1 19 "?" "P" "d" 1250.19 NA 9 56 2 24 "c" "j" 3402.78 1 100 1000 "1" 0 1 19
"231" 1 20 "?" "N" "f" 1125.14 NA 3 56 7 24 "i" "n" 1639.83 1 100 1000 "1" 0 1 20
"231" 1 21 "?" "P" "d" 675.91 NA 8 24 4 56 "i" "n" 2778.09 1 100 100 "1" 0 1 21
"231" 1 22 "?" "N" "f" -391.36 NA 3 24 9 56 "c" "n" 2210.68 1 1000 100 "1" 0 1 22
"231" 1 23 "?" "N" "f" -481.94 NA 7 56 2 24 "c" "j" 802.45 1 1000 1000 "0" 0 0 23
"231" 1 24 "?" "P" "d" 1336.93 NA 3 56 9 24 "i" "j" 1297.22 1 100 100 "1" 0 1 24
"231" 1 25 "?" "P" "d" 852.34 NA 2 56 7 24 "i" "j" 598.71 1 100 1000 "0" 0 0 25
"231" 1 26 "?" "N" "f" -182.66 NA 8 24 4 56 "i" "j" 1507.45 1 1000 1000 "1" 0 1 26
"231" 1 27 "?" "N" "f" 10.39 NA 2 24 8 56 "c" "n" 1116.02 1 1000 100 "0" 0 0 27
"231" 1 28 "?" "P" "d" 1585.97 NA 3 56 8 24 "i" "j" 1194.53 1 100 1000 "1" 0 1 28
"231" 1 29 "?" "N" "f" 1513.19 NA 2 56 8 24 "i" "n" 1082.9 1 100 100 "1" 0 1 29
"231" 1 30 "?" "P" "d" 854.96 NA 3 24 8 56 "c" "n" 883.14 1 100 100 "1" 0 1 30
"231" 1 31 "?" "N" "f" 528.71 NA 7 56 4 24 "c" "j" 1059.58 1 100 1000 "1" 0 1 31
"231" 1 32 "?" "P" "d" -155.51 NA 7 24 3 56 "i" "n" 735.26 1 1000 1000 "1" 0 1 32
"231" 1 33 "?" "P" "d" 908.9 NA 4 56 7 24 "i" "j" 954.45 1 100 100 "0" 0 0 33
"231" 1 34 "?" "P" "d" 753.38 NA 2 56 7 24 "i" "j" 983.15 1 100 100 "0" 0 0 34
"231" 1 35 "?" "N" "f" 349.71 NA 7 56 4 24 "c" "j" 1006.54 1 100 1000 "1" 0 1 35
"231" 1 36 "?" "N" "f" -417.25 NA 2 56 8 24 "i" "n" 1025.63 1 1000 100 "0" 0 0 36
"231" 1 37 "?" "N" "f" 589.27 NA 3 56 8 24 "i" "n" 985 1 100 1000 "0" 0 0 37
"231" 1 38 "?" "P" "d" 165.49 NA 8 56 2 24 "c" "j" 1108.22 1 100 100 "1" 0 1 38
"231" 1 39 "?" "P" "d" 330.26 NA 4 24 8 56 "c" "n" 734.08 1 100 1000 "0" 0 0 39
"231" 1 40 "?" "N" "f" 158.61 NA 8 56 2 24 "c" "j" 1303.92 1 100 100 "1" 0 1 40
"231" 1 41 "?" "P" "d" -577.26 NA 3 56 7 24 "i" "j" 3047.42 1 1000 1000 "1" 0 1 41
"231" 1 42 "?" "N" "f" 963.36 NA 4 24 7 56 "c" "n" 1487.49 1 100 1000 "1" 0 1 42
"231" 1 43 "?" "P" "d" -262.86 NA 3 56 7 24 "i" "j" 1067.52 1 1000 100 "1" 0 1 43
"231" 1 44 "?" "P" "d" 821.86 NA 4 24 7 56 "c" "n" 760.25 1 1000 100 "0" 0 0 44
"231" 1 45 "?" "N" "f" 399.42 NA 2 24 8 56 "c" "n" 2379.73 1 100 100 "1" 0 1 45
"231" 1 46 "?" "N" "f" -468.22 NA 9 24 4 56 "i" "j" 648.77 1 1000 100 "0" 0 0 46
"231" 1 47 "?" "N" "f" -70.37 NA 3 56 9 24 "i" "n" 1810.07 1 1000 1000 "0" 0 0 47
"231" 1 48 "?" "P" "d" 307.95 NA 2 56 8 24 "i" "j" 1405.21 1 100 100 "1" 0 1 48
"231" 1 49 "?" "P" "d" -542.95 NA 7 24 3 56 "i" "n" 1360.22 1 1000 1000 "0" 0 0 49
"231" 1 50 "?" "N" "f" 567.25 NA 4 24 8 56 "c" "n" 1323.55 1 100 1000 "1" 0 1 50
"231" 1 51 "?" "P" "d" -485.07 NA 2 24 8 56 "c" "n" 1035.6 1 1000 1000 "1" 0 1 51
"231" 1 52 "?" "N" "f" 751.56 NA 7 24 3 56 "i" "j" 1874.34 1 100 1000 "1" 0 1 52
"231" 1 53 "?" "P" "d" -506.88 NA 8 24 2 56 "i" "n" 2117.42 1 1000 100 "1" 0 1 53
"231" 1 54 "?" "N" "f" -339.23 NA 3 24 8 56 "c" "n" 1766.58 1 1000 100 "1" 0 1 54
"231" 1 55 "?" "P" "d" 1091.19 NA 7 56 4 24 "c" "j" 3023.31 1 100 100 "1" 0 1 55
"231" 1 56 "?" "N" "f" -362.47 NA 9 56 3 24 "c" "j" 786.94 1 1000 1000 "1" 0 1 56
"231" 1 57 "?" "N" "f" 607.14 NA 4 56 9 24 "i" "n" 1784.49 1 100 1000 "0" 0 0 57
"231" 1 58 "?" "P" "d" 304.24 NA 3 56 9 24 "i" "j" 2469.62 1 100 1000 "1" 0 1 58
"231" 1 59 "?" "P" "d" -214.79 NA 4 56 9 24 "i" "j" 890.56 1 1000 100 "0" 0 0 59
"231" 1 60 "?" "N" "f" 395.87 NA 3 24 7 56 "c" "n" 756.73 1 100 100 "1" 0 1 60
"231" 1 61 "?" "N" "f" -225.14 NA 7 24 2 56 "i" "j" 766.87 1 1000 1000 "0" 0 0 61
"231" 1 62 "?" "N" "f" 67.05 NA 3 56 8 24 "i" "n" 1531.75 1 1000 1000 "0" 0 0 62
"231" 1 63 "?" "P" "d" 234.34 NA 9 56 4 24 "c" "j" 1105.72 1 100 1000 "1" 0 1 63
"231" 1 64 "?" "P" "d" 617.76 NA 9 24 3 56 "i" "n" 711.99 1 100 100 "0" 0 0 64
"231" 1 65 "?" "P" "d" -287.9 NA 8 24 2 56 "i" "n" 1042.3 1 1000 100 "0" 0 0 65
"231" 2 1 "?" "N" "f" 3060.43 NA 3 56 9 24 "i" "n" 2314.57 1 1000 1000 "-1" 0 -1 66
"231" 2 2 "?" "P" "d" 2079.23 NA 4 24 8 56 "c" "n" 2430.49 1 100 100 "1" 0 1 67
"231" 2 3 "?" "P" "d" 737.57 NA 7 56 3 24 "c" "j" 1501.94 1 1000 100 "0" 0 0 68
"231" 2 4 "?" "N" "f" 373.5 NA 4 56 9 24 "i" "n" 1446.68 1 100 1000 "1" 0 1 69
"231" 2 5 "?" "P" "d" 1020.43 NA 7 56 3 24 "c" "j" 1332.33 1 100 100 "1" 0 1 70
"231" 2 6 "?" "N" "f" 1752.92 NA 7 56 2 24 "c" "j" 1533.94 1 1000 100 "1" 0 1 71
"231" 2 7 "?" "P" "d" -508.62 NA 3 24 9 56 "c" "n" 1283.57 1 1000 100 "1" 0 1 72
"231" 2 8 "?" "P" "d" -238.63 NA 4 56 7 24 "i" "n" 899.76 0 1000 1000 "0" 0 0 73
"231" 2 9 "?" "P" "d" 416.25 NA 7 56 3 24 "c" "j" 1434.85 1 100 1000 "0" 1 0 74
"231" 2 10 "?" "N" "f" 270.98 NA 7 56 2 24 "c" "j" 1142.1 1 100 100 "1" 0 1 75
"231" 2 11 "?" "N" "f" -257 NA 3 56 7 24 "i" "n" 2850.86 1 1000 100 "0" 0 0 76
"231" 2 12 "?" "N" "f" -464.18 NA 2 56 7 24 "i" "n" 764.57 1 1000 100 "0" 0 0 77
"231" 2 13 "?" "P" "d" 415.81 NA 7 24 4 56 "i" "n" 1343.53 1 100 1000 "1" 0 1 78
"231" 2 14 "?" "P" "d" -278.73 NA 7 56 3 24 "c" "j" 883.29 1 1000 100 "0" 0 0 79
"231" 2 15 "?" "N" "f" -92.07 NA 2 24 9 56 "c" "n" 1552.12 1 1000 1000 "1" 0 1 80
"231" 2 16 "?" "N" "f" -545.4 NA 9 24 3 56 "i" "j" 1256.52 1 1000 1000 "0" 0 0 81
"231" 2 17 "?" "P" "d" -642.06 NA 4 24 7 56 "c" "n" 4221.31 1 1000 100 "1" 0 1 82
"231" 2 18 "?" "N" "f" 1385.54 NA 7 24 3 56 "i" "j" 2380.27 1 100 1000 "1" 0 1 83
"231" 2 19 "?" "P" "d" 669.92 NA 8 56 4 24 "c" "j" 3930.09 1 1000 1000 "1" 0 1 84
"231" 2 20 "?" "N" "f" 1254 NA 9 56 3 24 "c" "j" 1219.47 1 100 1000 "1" 0 1 85
"231" 2 21 "?" "P" "d" -297.59 NA 4 56 9 24 "i" "j" 1651.78 1 1000 100 "1" 0 1 86
"231" 2 22 "?" "P" "d" 1239.05 NA 3 56 8 24 "i" "j" 4067.76 1 100 100 "0" 0 0 87
"231" 2 23 "?" "N" "f" 458.95 NA 9 56 4 24 "c" "j" 3002.7 1 100 1000 "1" 0 1 88
"231" 2 24 "?" "N" "f" 844.93 NA 9 24 2 56 "i" "j" 1249.32 1 100 100 "0" 0 0 89
"231" 2 25 "?" "P" "d" 1315.8 NA 8 56 4 24 "c" "j" 1006.69 1 100 100 "1" 0 1 90
"231" 2 26 "?" "N" "f" 327.08 NA 9 56 2 24 "c" "j" 1034.55 1 1000 1000 "1" 0 1 91
"231" 2 27 "?" "N" "f" 3006.05 NA 3 56 7 24 "i" "n" 1489.71 1 100 100 "0" 0 0 92
"231" 2 28 "?" "P" "d" 1182.01 NA 4 24 8 56 "c" "n" 1297.59 1 100 1000 "1" 0 1 93
"231" 2 29 "?" "P" "d" 1066.13 NA 3 24 8 56 "c" "n" 848.16 1 1000 1000 "0" 0 0 94
"231" 2 30 "?" "N" "f" 1157.65 NA 2 56 9 24 "i" "n" 1875.51 1 100 100 "1" 0 1 95
"231" 2 31 "?" "N" "f" 1173.12 NA 4 56 7 24 "i" "n" 1019.49 1 100 100 "0" 0 0 96
"231" 2 32 "?" "P" "d" -251.62 NA 3 56 7 24 "i" "j" 2258.98 1 1000 1000 "1" 0 1 97
"231" 2 33 "?" "P" "d" 1082.41 NA 4 56 8 24 "i" "j" 1355.45 1 100 100 "0" 0 0 98
"231" 2 34 "?" "N" "f" -47.14 NA 7 24 3 56 "i" "j" 1564.44 1 1000 100 "1" 0 1 99
"231" 2 35 "?" "P" "d" 1606.27 NA 9 24 4 56 "i" "n" 1390.98 1 100 100 "1" 0 1 100
"231" 2 36 "?" "N" "f" 495.87 NA 3 56 9 24 "i" "n" 1329.21 1 1000 1000 "1" 0 1 101
"231" 2 37 "?" "P" "d" 1481.11 NA 2 24 7 56 "c" "n" 2715.51 1 100 100 "1" 0 1 102
"231" 2 38 "?" "N" "f" 1144.14 NA 8 24 4 56 "i" "j" 3589.91 1 100 100 "1" 0 1 103
"231" 2 39 "?" "P" "d" 2900.77 NA 3 56 9 24 "i" "j" 1793.15 1 1000 100 "1" 0 1 104
"231" 2 40 "?" "N" "f" 870.61 NA 7 24 4 56 "i" "j" 2557.49 1 100 1000 "1" 0 1 105
"231" 2 41 "?" "N" "f" 1248.36 NA 8 56 2 24 "c" "j" 1939.21 1 1000 1000 "0" 0 0 106
"231" 2 42 "?" "N" "f" 1732.12 NA 4 56 7 24 "i" "n" 1477.21 1 100 1000 "0" 0 0 107
"231" 2 43 "?" "P" "d" 870.33 NA 7 24 3 56 "i" "n" 2737.51 1 1000 1000 "1" 0 1 108
"231" 2 44 "?" "P" "d" 1166.81 NA 2 24 7 56 "c" "n" 3144.1 1 1000 1000 "0" 0 0 109
"231" 2 45 "?" "N" "f" 1060.87 NA 3 24 8 56 "c" "n" 1360.92 1 100 1000 "1" 0 1 110
"231" 2 46 "?" "N" "f" 1119.82 NA 8 24 4 56 "i" "j" 1555.38 1 100 1000 "0" 0 0 111
"231" 2 47 "?" "P" "d" 831.05 NA 8 56 2 24 "c" "j" 1454.9 1 1000 1000 "1" 0 1 112
"231" 2 48 "?" "P" "d" 1101.37 NA 3 24 8 56 "c" "n" 1374.13 1 100 1000 "0" 0 0 113
"231" 2 49 "?" "N" "f" 1182.74 NA 4 56 8 24 "i" "n" 2940.47 1 1000 1000 "1" 0 1 114
"231" 2 50 "?" "N" "f" 922.42 NA 9 56 3 24 "c" "j" 1176.48 1 100 1000 "0" 0 0 115
"231" 2 51 "?" "N" "f" 1275.37 NA 9 24 2 56 "i" "j" 818.24 1 100 1000 "0" 0 0 116
"231" 2 52 "?" "N" "f" 333.21 NA 3 24 9 56 "c" "n" 2494.07 1 1000 100 "0" 0 0 117
"231" 2 53 "?" "N" "f" 2208.87 NA 2 24 8 56 "c" "n" 1999.24 1 100 100 "0" 0 0 118
"231" 2 54 "?" "P" "d" 314.65 NA 3 24 9 56 "c" "n" 2219.52 1 100 1000 "1" 0 1 119
"231" 2 55 "?" "P" "d" 97.83 NA 2 56 8 24 "i" "j" 1016.01 1 1000 1000 "0" 0 0 120
"231" 2 56 "?" "P" "d" -407.51 NA 8 56 4 24 "c" "j" 743.3 1 1000 100 "0" 0 0 121
"231" 2 57 "?" "P" "d" 612.56 NA 7 56 3 24 "c" "j" 733.65 1 100 100 "0" 0 0 122
"231" 2 58 "?" "P" "d" 506.95 NA 8 24 2 56 "i" "n" 997.72 1 1000 100 "0" 0 0 123
"231" 2 59 "?" "P" "d" 583.04 NA 8 24 4 56 "i" "n" 861.03 1 100 1000 "0" 0 0 124
"231" 2 60 "?" "N" "f" 466.35 NA 3 56 9 24 "i" "n" 804.93 1 1000 1000 "1" 0 1 125
"231" 2 61 "?" "P" "d" -81.27 NA 8 24 2 56 "i" "n" 1665.37 1 1000 100 "1" 0 1 126
"231" 2 62 "?" "N" "f" -352.7 NA 4 24 8 56 "c" "n" 1045.06 1 1000 100 "1" 0 1 127
"231" 2 63 "?" "N" "f" 682.4 NA 3 24 7 56 "c" "n" 781.56 1 100 100 "0" 0 0 128
"231" 2 64 "?" "P" "d" 537.7 NA 2 56 7 24 "i" "j" 1086.57 1 1000 100 "1" 0 1 129
"231" 2 65 "?" "P" "d" 603.99 NA 4 24 8 56 "c" "n" 522.09 1 1000 1000 "0" 0 0 130
"231" 3 1 "?" "N" "f" 1113.62 NA 8 56 4 24 "c" "j" 981.66 1 100 1000 "-1" 0 -1 131
"231" 3 2 "?" "P" "d" -26.53 NA 3 24 9 56 "c" "n" 685.45 1 1000 100 "1" 0 1 132
"231" 3 3 "?" "N" "f" 807.5 NA 2 56 8 24 "i" "n" 784.34 1 100 100 "1" 0 1 133
"231" 3 4 "?" "N" "f" 935.87 NA 7 56 4 24 "c" "j" 1038.08 1 100 100 "0" 0 0 134
"231" 3 5 "?" "N" "f" 551 NA 7 56 3 24 "c" "j" 1104.45 1 100 1000 "0" 0 0 135
"231" 3 6 "?" "P" "d" -711.77 NA 2 24 7 56 "c" "n" 932.55 1 1000 1000 "1" 0 1 136
"231" 3 7 "?" "P" "d" -610.01 NA 7 24 4 56 "i" "n" 956.75 1 1000 100 "0" 0 0 137
"231" 3 8 "?" "N" "f" -360.46 NA 3 56 7 24 "i" "n" 846.5 1 1000 100 "1" 0 1 138
"231" 3 9 "?" "P" "d" 649.49 NA 9 56 4 24 "c" "n" 1941.37 0 100 100 "1" 0 1 139
"231" 3 10 "?" "P" "d" 1272.94 NA 9 24 2 56 "i" "n" 725.83 1 100 1000 "0" 1 0 140
"231" 3 11 "?" "P" "d" 792.71 NA 4 56 8 24 "i" "j" 1134.22 1 100 1000 "0" 0 0 141
"231" 3 12 "?" "P" "d" 631.57 NA 7 56 3 24 "c" "j" 814.17 1 100 100 "0" 0 0 142
"231" 3 13 "?" "P" "d" -206.4 NA 9 24 4 56 "i" "n" 1708.48 1 1000 1000 "0" 0 0 143
"231" 3 14 "?" "N" "f" 520.53 NA 8 56 2 24 "c" "j" 847.65 1 100 1000 "1" 0 1 144
"231" 3 15 "?" "N" "f" 504.62 NA 8 56 3 24 "c" "j" 590.27 1 100 1000 "0" 0 0 145
"231" 3 16 "?" "N" "f" 508.15 NA 7 24 4 56 "i" "n" 763.08 0 100 100 "0" 0 0 146
"231" 3 17 "?" "N" "f" 1932.99 NA 3 56 9 24 "i" "n" 3481.36 1 100 100 "0" 1 0 147
"231" 3 18 "?" "P" "d" -74.31 NA 2 56 7 24 "i" "j" 1109.01 1 1000 1000 "1" 0 1 148
"231" 3 19 "?" "P" "d" 1094.96 NA 4 24 9 56 "c" "n" 900.85 1 100 100 "0" 0 0 149
"231" 3 20 "?" "P" "d" 867.62 NA 9 24 2 56 "i" "n" 924.06 1 100 1000 "0" 0 0 150
"231" 3 21 "?" "N" "f" 474.74 NA 4 24 7 56 "c" "n" 1708.86 1 100 100 "1" 0 1 151
"231" 3 22 "?" "N" "f" -359.5 NA 8 56 2 24 "c" "j" 689.6 1 1000 100 "0" 0 0 152
"231" 3 23 "?" "N" "f" -563.12 NA 7 56 4 24 "c" "j" 777.36 1 1000 1000 "0" 0 0 153
"231" 3 24 "?" "N" "f" 725.73 NA 9 24 2 56 "i" "j" 909.06 1 1000 1000 "0" 0 0 154
"231" 3 25 "?" "N" "f" 601.06 NA 7 24 3 56 "i" "n" 984.6 0 100 1000 "0" 0 0 155
"231" 3 26 "?" "N" "f" 1099.86 NA 2 56 8 24 "i" "n" 893.44 1 100 1000 "0" 1 0 156
"231" 3 27 "?" "P" "d" 994.14 NA 9 56 4 24 "c" "j" 2936.17 1 1000 1000 "1" 0 1 157
"231" 3 28 "?" "P" "d" -462.63 NA 3 24 8 56 "c" "n" 777.68 1 1000 100 "0" 0 0 158
"231" 3 29 "?" "P" "d" 208.22 NA 9 24 2 56 "i" "n" 1291.26 1 1000 1000 "0" 0 0 159
"231" 3 30 "?" "P" "d" 338.92 NA 4 24 8 56 "c" "n" 671.5 1 1000 100 "0" 0 0 160
"231" 3 31 "?" "P" "d" 2790.52 NA 7 24 3 56 "i" "n" 691.83 1 100 100 "0" 0 0 161
"231" 3 32 "?" "N" "f" -369.63 NA 9 24 4 56 "i" "j" 1388.26 1 1000 100 "1" 0 1 162
"231" 3 33 "?" "N" "f" 663.65 NA 2 24 8 56 "c" "n" 699.96 1 100 1000 "0" 0 0 163
"231" 3 34 "?" "N" "f" 619.3 NA 9 24 4 56 "i" "j" 1240.54 1 100 1000 "0" 0 0 164
"231" 3 35 "?" "N" "f" 1486.96 NA 8 24 2 56 "i" "j" 1320.53 1 100 100 "0" 0 0 165
"231" 3 36 "?" "N" "f" 1145.14 NA 9 24 4 56 "i" "j" 833.92 1 1000 100 "0" 0 0 166
"231" 3 37 "?" "P" "d" 506.92 NA 9 24 2 56 "i" "n" 1525.84 1 1000 1000 "1" 0 1 167
"231" 3 38 "?" "P" "d" 701.48 NA 4 56 8 24 "i" "j" 726.55 1 100 1000 "0" 0 0 168
"231" 3 39 "?" "P" "d" 2547.83 NA 9 56 2 24 "c" "j" 869.74 1 100 100 "0" 0 0 169
"231" 3 40 "?" "N" "f" 537.68 NA 3 24 9 56 "c" "n" 973.17 1 100 100 "1" 0 1 170
"231" 3 41 "?" "N" "f" -1.25 NA 4 56 7 24 "i" "n" 1475.61 1 1000 100 "0" 0 0 171
"231" 3 42 "?" "P" "d" 58.69 NA 9 56 3 24 "c" "j" 1799.91 1 1000 100 "1" 0 1 172
"231" 3 43 "?" "P" "d" 809.86 NA 2 56 8 24 "i" "j" 741.48 1 100 100 "0" 0 0 173
"231" 3 44 "?" "N" "f" -460.06 NA 8 24 4 56 "i" "j" 1589.53 1 1000 1000 "1" 0 1 174
"231" 3 45 "?" "N" "f" -541.81 NA 2 56 8 24 "i" "n" 1204.37 1 1000 1000 "0" 0 0 175
"231" 3 46 "?" "N" "f" 1359.91 NA 9 24 3 56 "i" "j" 742.21 1 100 100 "0" 0 0 176
"231" 3 47 "?" "P" "d" -482.3 NA 4 24 7 56 "c" "n" 2085.44 1 1000 1000 "1" 0 1 177
"231" 3 48 "?" "P" "d" -361.07 NA 7 56 3 24 "c" "j" 1418.89 1 1000 100 "0" 0 0 178
"231" 3 49 "?" "P" "d" 469.37 NA 7 24 2 56 "i" "n" 1274.71 1 100 1000 "0" 0 0 179
"231" 3 50 "?" "N" "f" -551.2 NA 7 24 3 56 "i" "j" 1117.39 1 1000 100 "1" 0 1 180
"231" 3 51 "?" "N" "f" 461.83 NA 4 24 7 56 "c" "n" 901.72 1 100 100 "0" 0 0 181
"231" 3 52 "?" "P" "d" 8.08 NA 2 56 8 24 "i" "j" 852.33 1 1000 1000 "1" 0 1 182
"231" 3 53 "?" "N" "f" -499.79 NA 8 56 3 24 "c" "j" 1155.84 1 1000 1000 "1" 0 1 183
"231" 3 54 "?" "N" "f" 709.37 NA 2 24 8 56 "c" "n" 595.12 1 100 1000 "0" 0 0 184
"231" 3 55 "?" "P" "d" 625.62 NA 8 56 3 24 "c" "j" 999.29 1 100 1000 "1" 0 1 185
"231" 3 56 "?" "N" "f" 675.02 NA 4 24 7 56 "c" "n" 1448.93 1 100 1000 "1" 0 1 186
"231" 3 57 "?" "P" "d" -431.22 NA 7 56 3 24 "c" "j" 605.45 1 1000 1000 "1" 0 1 187
"231" 3 58 "?" "N" "f" 563.97 NA 4 24 7 56 "c" "n" 2297.77 1 100 1000 "1" 0 1 188
"231" 3 59 "?" "P" "d" -443.99 NA 9 56 2 24 "c" "j" 1257.74 1 1000 100 "1" 0 1 189
"231" 3 60 "?" "N" "f" 136.72 NA 9 24 3 56 "i" "j" 1928.72 1 1000 100 "1" 0 1 190
"231" 3 61 "?" "P" "d" -153.48 NA 7 24 4 56 "i" "n" 1446.75 1 1000 100 "1" 0 1 191
"231" 3 62 "?" "N" "f" -286.66 NA 3 24 8 56 "c" "n" 1549.9 1 1000 100 "1" 0 1 192
"231" 3 63 "?" "P" "d" -216.15 NA 2 24 9 56 "c" "n" 1203.05 1 1000 1000 "1" 0 1 193
"231" 3 64 "?" "N" "f" 402.74 NA 3 24 7 56 "c" "n" 1274.32 1 1000 1000 "1" 0 1 194
"231" 3 65 "?" "P" "d" 868.66 NA 8 24 4 56 "i" "n" 1049.23 1 100 100 "1" 0 1 195
"231" 4 1 "?" "N" "f" 911.71 NA 3 24 8 56 "c" "n" 641.69 1 100 1000 "-1" 0 -1 196
"231" 4 2 "?" "P" "d" -381.04 NA 4 56 9 24 "i" "j" 1399 1 1000 100 "1" 0 1 197
"231" 4 3 "?" "N" "f" -115.54 NA 3 24 9 56 "c" "n" 922.99 1 1000 100 "1" 0 1 198
"231" 4 4 "?" "P" "d" -406.46 NA 9 24 2 56 "i" "n" 1121.47 1 1000 100 "1" 0 1 199
"231" 4 5 "?" "N" "f" 540.32 NA 9 24 3 56 "i" "j" 964.22 1 100 100 "1" 0 1 200
"231" 4 6 "?" "P" "d" 380.37 NA 8 24 2 56 "i" "n" 1872.1 1 100 100 "1" 0 1 201
"231" 4 7 "?" "N" "f" -554.55 NA 9 56 3 24 "c" "j" 944.86 1 1000 100 "1" 0 1 202
"231" 4 8 "?" "P" "d" -299.59 NA 4 24 9 56 "c" "n" 1333.88 1 1000 1000 "1" 0 1 203
"231" 4 9 "?" "N" "f" 675.58 NA 2 24 7 56 "c" "n" 2113.49 1 100 100 "1" 0 1 204
"231" 4 10 "?" "P" "d" 682.76 NA 9 56 3 24 "c" "j" 1963.02 1 100 1000 "1" 0 1 205
"231" 4 11 "?" "N" "f" 614.18 NA 2 24 9 56 "c" "n" 1195.9 1 100 1000 "1" 0 1 206
"231" 4 12 "?" "P" "d" 174.92 NA 9 24 4 56 "i" "n" 3384.82 1 1000 1000 "1" 0 1 207
"231" 4 13 "?" "N" "f" 494.3 NA 7 56 2 24 "c" "j" 822.3 1 100 100 "1" 0 1 208
"231" 4 14 "?" "N" "f" 1260.12 NA 8 56 3 24 "c" "j" 899.23 1 100 1000 "0" 0 0 209
"231" 4 15 "?" "N" "f" 551.06 NA 4 24 9 56 "c" "n" 828.04 1 100 1000 "0" 0 0 210
"231" 4 16 "?" "P" "d" 546 NA 2 56 7 24 "i" "j" 4447.42 1 100 100 "1" 0 1 211
"231" 4 17 "?" "P" "d" -627.09 NA 7 24 3 56 "i" "n" 849.66 1 1000 100 "0" 0 0 212
"231" 4 18 "?" "P" "d" 393.88 NA 2 56 9 24 "i" "j" 631.08 1 100 100 "0" 0 0 213
"231" 4 19 "?" "N" "f" 493.95 NA 3 24 9 56 "c" "n" 1158.03 1 100 1000 "1" 0 1 214
"231" 4 20 "?" "P" "d" 597.91 NA 7 24 4 56 "i" "n" 1725.47 1 1000 1000 "1" 0 1 215
"231" 4 21 "?" "N" "f" -392.92 NA 9 24 2 56 "i" "j" 2827.65 1 1000 100 "1" 0 1 216
"231" 4 22 "?" "P" "d" -358.37 NA 3 24 9 56 "c" "n" 678.84 1 1000 1000 "1" 0 1 217
"231" 4 23 "?" "P" "d" 457.77 NA 2 24 8 56 "c" "n" 739.94 1 100 100 "0" 0 0 218
"231" 4 24 "?" "P" "d" 1307.32 NA 8 56 4 24 "c" "j" 794.55 1 100 1000 "0" 0 0 219
"231" 4 25 "?" "P" "d" 1355.35 NA 9 56 3 24 "c" "j" 1164.15 1 1000 100 "0" 0 0 220
"231" 4 26 "?" "N" "f" 999.88 NA 2 56 9 24 "i" "n" 1062.04 1 100 1000 "1" 0 1 221
"231" 4 27 "?" "P" "d" 759.84 NA 7 56 3 24 "c" "j" 527.61 1 1000 1000 "1" 0 1 222
"231" 4 28 "?" "P" "d" 783.32 NA 8 24 2 56 "i" "n" 996.18 1 100 100 "0" 0 0 223
"231" 4 29 "?" "N" "f" 941.64 NA 8 24 3 56 "i" "j" 616.14 1 100 1000 "1" 0 1 224
"231" 4 30 "?" "N" "f" 663.58 NA 7 56 4 24 "c" "j" 1106.83 1 100 100 "0" 0 0 225
"231" 4 31 "?" "N" "f" 349.09 NA 8 24 3 56 "i" "j" 735.99 1 1000 1000 "0" 0 0 226
"231" 4 32 "?" "N" "f" 1707.41 NA 4 24 7 56 "c" "n" 1099.07 1 1000 100 "0" 0 0 227
"231" 4 33 "?" "P" "d" -453.06 NA 2 56 7 24 "i" "j" 1427.85 1 1000 1000 "1" 0 1 228
"231" 4 34 "?" "P" "d" -379.1 NA 3 24 8 56 "c" "n" 1028.93 1 1000 1000 "0" 0 0 229
"231" 4 35 "?" "P" "d" 1762.05 NA 2 56 8 24 "i" "j" 551.2 1 100 1000 "0" 0 0 230
"231" 4 36 "?" "N" "f" 446.91 NA 7 56 4 24 "c" "j" 1050.56 1 100 100 "1" 0 1 231
"231" 4 37 "?" "N" "f" 89.61 NA 9 56 2 24 "c" "j" 907.69 1 1000 1000 "0" 0 0 232
"231" 4 38 "?" "N" "f" 350.55 NA 4 24 8 56 "c" "n" 591.65 1 1000 1000 "0" 0 0 233
"231" 4 39 "?" "P" "d" 1015 NA 9 24 3 56 "i" "n" 847.21 1 1000 1000 "1" 0 1 234
"231" 4 40 "?" "N" "f" 1427.5 NA 4 56 7 24 "i" "j" 4475.79 0 100 1000 "1" 0 1 235
"231" 4 41 "?" "P" "d" 213.39 NA 9 24 3 56 "i" "n" 1331.58 1 1000 100 "1" 1 1 236
"231" 4 42 "?" "N" "f" 1438.92 NA 2 24 8 56 "c" "n" 1827.67 1 100 1000 "1" 0 1 237
"231" 4 43 "?" "N" "f" 1782.01 NA 8 56 4 24 "c" "j" 735.18 1 100 100 "0" 0 0 238
"231" 4 44 "?" "P" "d" -556.06 NA 9 24 2 56 "i" "n" 841.48 1 1000 1000 "1" 0 1 239
"231" 4 45 "?" "P" "d" -460.55 NA 7 56 3 24 "c" "j" 1498.69 1 1000 1000 "0" 0 0 240
"231" 4 46 "?" "N" "f" 493.34 NA 7 24 4 56 "i" "j" 990.84 1 100 100 "1" 0 1 241
"231" 4 47 "?" "N" "f" -449.9 NA 7 56 2 24 "c" "j" 835 1 1000 100 "0" 0 0 242
"231" 4 48 "?" "N" "f" 683.89 NA 4 24 7 56 "c" "n" 794.77 1 100 100 "0" 0 0 243
"231" 4 49 "?" "P" "d" 2144.36 NA 9 24 2 56 "i" "n" 504.88 1 100 1000 "1" 0 1 244
"231" 4 50 "?" "N" "f" 720.44 NA 3 24 9 56 "c" "n" 1208.37 1 100 100 "1" 0 1 245
"231" 4 51 "?" "N" "f" 58.74 NA 4 56 7 24 "i" "n" 1292.32 1 1000 100 "0" 0 0 246
"231" 4 52 "?" "P" "d" -346.75 NA 3 56 9 24 "i" "j" 690.83 1 1000 100 "1" 0 1 247
"231" 4 53 "?" "P" "d" -89.35 NA 2 56 8 24 "i" "j" 644.65 1 1000 100 "0" 0 0 248
"231" 4 54 "?" "P" "d" 704.31 NA 4 56 8 24 "i" "j" 871.29 1 100 1000 "0" 0 0 249
"231" 4 55 "?" "N" "f" -193.98 NA 2 24 9 56 "c" "n" 821.32 1 1000 100 "1" 0 1 250
"231" 4 56 "?" "N" "f" 404.22 NA 8 56 3 24 "c" "j" 578.32 1 1000 1000 "0" 0 0 251
"231" 4 57 "?" "N" "f" 63.52 NA 8 56 4 24 "c" "j" 689.51 1 1000 100 "0" 0 0 252
"231" 4 58 "?" "N" "f" 2060.84 NA 3 56 9 24 "i" "n" 1157.4 1 100 100 "0" 0 0 253
"231" 4 59 "?" "P" "d" 474.96 NA 4 56 9 24 "i" "j" 942.87 1 100 1000 "1" 0 1 254
"231" 4 60 "?" "P" "d" -133.01 NA 2 56 9 24 "i" "j" 836.7 1 1000 1000 "0" 0 0 255
"231" 4 61 "?" "P" "d" 391.76 NA 4 56 7 24 "i" "j" 1538.15 1 1000 1000 "0" 0 0 256
"231" 4 62 "?" "N" "f" 461.17 NA 7 56 2 24 "c" "j" 967.51 1 100 1000 "1" 0 1 257
"231" 4 63 "?" "P" "d" 1182.47 NA 7 24 3 56 "i" "n" 825.75 1 100 1000 "1" 0 1 258
"231" 4 64 "?" "N" "f" 420.69 NA 4 56 8 24 "i" "n" 1220.43 1 100 100 "1" 0 1 259
"231" 4 65 "?" "N" "f" -262.4 NA 2 24 7 56 "c" "n" 944.08 1 1000 100 "0" 0 0 260
"231" 5 1 "?" "P" "d" 896.29 NA 3 24 7 56 "c" "n" 811.32 1 100 1000 "-1" 0 -1 261
"231" 5 2 "?" "N" "f" 535.1 NA 7 24 4 56 "i" "j" 564.93 1 100 1000 "1" 0 1 262
"231" 5 3 "?" "N" "f" -419.05 NA 3 56 9 24 "i" "n" 842.65 1 1000 1000 "0" 0 0 263
"231" 5 4 "?" "P" "d" -256.44 NA 2 56 8 24 "i" "j" 770.09 1 1000 100 "1" 0 1 264
"231" 5 5 "?" "P" "d" -487.17 NA 8 24 3 56 "i" "n" 1642.48 1 1000 100 "0" 0 0 265
"231" 5 6 "?" "P" "d" 475.66 NA 4 24 8 56 "c" "n" 1192 1 100 100 "0" 0 0 266
"231" 5 7 "?" "N" "f" -122.96 NA 3 56 9 24 "i" "n" 1139.11 1 1000 1000 "1" 0 1 267
"231" 5 8 "?" "N" "f" 67.33 NA 8 56 2 24 "c" "j" 1420.17 1 1000 100 "0" 0 0 268
"231" 5 9 "?" "P" "d" 1516.17 NA 3 24 9 56 "c" "n" 600.59 1 1000 100 "1" 0 1 269
"231" 5 10 "?" "N" "f" -478.15 NA 8 24 2 56 "i" "j" 2078.44 1 1000 100 "1" 0 1 270
"231" 5 11 "?" "P" "d" -469.09 NA 9 24 3 56 "i" "n" 940.47 1 1000 100 "1" 0 1 271
"231" 5 12 "?" "N" "f" 10.65 NA 4 24 9 56 "c" "j" 1060.34 0 1000 100 "1" 0 1 272
"231" 5 13 "?" "P" "d" 1489.87 NA 9 56 3 24 "c" "j" 2436.04 1 100 1000 "1" 1 1 273
"231" 5 14 "?" "N" "f" -416.71 NA 8 24 4 56 "i" "j" 1306.49 1 1000 1000 "1" 0 1 274
"231" 5 15 "?" "N" "f" -394.74 NA 8 24 3 56 "i" "j" 767.41 1 1000 100 "0" 0 0 275
"231" 5 16 "?" "P" "d" 1001.84 NA 8 56 2 24 "c" "j" 2297.92 1 100 100 "1" 0 1 276
"231" 5 17 "?" "P" "d" -488.92 NA 4 56 9 24 "i" "n" 1054.22 0 1000 1000 "0" 0 0 277
"231" 5 18 "?" "P" "d" 223.9 NA 7 24 2 56 "i" "n" 1031.16 1 1000 1000 "0" 1 0 278
"231" 5 19 "?" "N" "f" 1190.92 NA 7 56 3 24 "c" "j" 3530.07 1 100 100 "1" 0 1 279
"231" 5 20 "?" "N" "f" 274.16 NA 4 24 8 56 "c" "n" 593.34 1 1000 1000 "0" 0 0 280
"231" 5 21 "?" "P" "d" 1029.14 NA 2 56 7 24 "i" "j" 2128.32 1 100 100 "1" 0 1 281
"231" 5 22 "?" "N" "f" 545.09 NA 3 24 9 56 "c" "n" 1350.6 1 1000 1000 "1" 0 1 282
"231" 5 23 "?" "N" "f" 1789.63 NA 4 24 8 56 "c" "n" 3853.58 1 100 1000 "0" 0 0 283
"231" 5 24 "?" "P" "d" 652.92 NA 3 56 9 24 "i" "j" 4762.88 1 100 100 "1" 0 1 284
"231" 5 25 "?" "P" "d" -436.98 NA 4 24 9 56 "c" "n" 2096.34 1 1000 1000 "0" 0 0 285
"231" 5 26 "?" "P" "d" 433.45 NA 8 56 3 24 "c" "j" 860.84 1 1000 1000 "0" 0 0 286
"231" 5 27 "?" "N" "f" 1491.81 NA 4 56 7 24 "i" "n" 3405.33 1 100 1000 "1" 0 1 287
"231" 5 28 "?" "N" "f" 503.55 NA 3 56 7 24 "i" "n" 521.48 1 100 1000 "0" 0 0 288
"231" 5 29 "?" "P" "d" 664.68 NA 4 24 7 56 "c" "n" 1196.05 1 100 1000 "1" 0 1 289
"231" 5 30 "?" "P" "d" -444.8 NA 7 56 3 24 "c" "j" 704.99 1 1000 1000 "0" 0 0 290
"231" 5 31 "?" "N" "f" 382.2 NA 2 56 8 24 "i" "n" 1873.78 1 100 100 "1" 0 1 291
"231" 5 32 "?" "N" "f" -282.38 NA 8 24 3 56 "i" "j" 934.91 1 1000 100 "0" 0 0 292
"231" 5 33 "?" "P" "d" 1055.21 NA 4 56 8 24 "i" "j" 2344.44 1 100 1000 "1" 0 1 293
"231" 5 34 "?" "P" "d" -256.2 NA 3 56 7 24 "i" "j" 1073.54 1 1000 1000 "0" 0 0 294
"231" 5 35 "?" "P" "d" 597.89 NA 4 24 8 56 "c" "n" 600.99 1 100 100 "0" 0 0 295
"231" 5 36 "?" "N" "f" 531.06 NA 3 56 9 24 "i" "n" 825.69 1 100 100 "1" 0 1 296
"231" 5 37 "?" "N" "f" 397.91 NA 4 56 9 24 "i" "n" 849.13 1 100 100 "0" 0 0 297
"231" 5 38 "?" "N" "f" -340.73 NA 3 56 7 24 "i" "n" 641.06 1 1000 100 "0" 0 0 298
"231" 5 39 "?" "N" "f" -314.31 NA 9 56 4 24 "c" "j" 1093.95 1 1000 1000 "0" 0 0 299
"231" 5 40 "?" "N" "f" -75.52 NA 7 24 2 56 "i" "j" 1186.19 1 1000 1000 "0" 0 0 300
"231" 5 41 "?" "N" "f" 1832.34 NA 3 24 8 56 "c" "n" 847.95 1 100 100 "0" 0 0 301
"231" 5 42 "?" "P" "d" 313.32 NA 7 24 2 56 "i" "n" 768.83 1 100 100 "1" 0 1 302
"231" 5 43 "?" "P" "d" 414.11 NA 9 24 4 56 "i" "n" 486.83 1 100 1000 "0" 0 0 303
"231" 5 44 "?" "P" "d" 1022.69 NA 3 56 9 24 "i" "j" 590.46 1 100 1000 "0" 0 0 304
"231" 5 45 "?" "P" "d" -178.9 NA 8 56 4 24 "c" "j" 723.38 1 1000 100 "0" 0 0 305
"231" 5 46 "?" "P" "d" 486.2 NA 2 24 7 56 "c" "n" 623.09 1 100 100 "0" 0 0 306
"231" 5 47 "?" "N" "f" 451.98 NA 7 56 3 24 "c" "j" 553.42 1 100 1000 "1" 0 1 307
"231" 5 48 "?" "N" "f" -363.31 NA 4 24 9 56 "c" "n" 594.74 1 1000 1000 "0" 0 0 308
"231" 5 49 "?" "N" "f" 400.73 NA 9 56 3 24 "c" "j" 647.66 1 100 1000 "0" 0 0 309
"231" 5 50 "?" "N" "f" -262.05 NA 4 24 8 56 "c" "n" 663.19 1 1000 100 "0" 0 0 310
"231" 5 51 "?" "N" "f" 683.81 NA 7 56 2 24 "c" "j" 579.52 1 100 1000 "0" 0 0 311
"231" 5 52 "?" "N" "f" -376.17 NA 8 56 3 24 "c" "j" 1314.52 1 1000 100 "0" 0 0 312
"231" 5 53 "?" "P" "d" 774.37 NA 9 56 4 24 "c" "j" 694.53 1 100 100 "1" 0 1 313
"231" 5 54 "?" "P" "d" -186.83 NA 7 24 3 56 "i" "n" 703.75 1 1000 1000 "0" 0 0 314
"231" 5 55 "?" "N" "f" 258.07 NA 7 24 4 56 "i" "j" 752.3 1 100 100 "1" 0 1 315
"231" 5 56 "?" "N" "f" 425.05 NA 3 24 9 56 "c" "n" 875.11 1 100 1000 "0" 0 0 316
"231" 5 57 "?" "P" "d" 791.3 NA 8 56 4 24 "c" "j" 1336.04 1 100 100 "1" 0 1 317
"231" 5 58 "?" "N" "f" 898.39 NA 3 56 8 24 "i" "n" 1116.76 1 100 1000 "1" 0 1 318
"231" 5 59 "?" "P" "d" -451.49 NA 2 24 8 56 "c" "n" 1339.78 1 1000 100 "1" 0 1 319
"231" 5 60 "?" "N" "f" -270.65 NA 9 56 3 24 "c" "j" 945.81 1 1000 1000 "1" 0 1 320
"231" 5 61 "?" "N" "f" 582.34 NA 8 24 4 56 "i" "j" 1196.9 1 100 1000 "0" 0 0 321
"231" 5 62 "?" "P" "d" -522.95 NA 8 24 2 56 "i" "n" 2180.63 1 1000 100 "1" 0 1 322
"231" 5 63 "?" "P" "d" 401.44 NA 4 56 8 24 "i" "j" 1217.43 1 100 100 "0" 0 0 323
"231" 5 64 "?" "N" "f" 541.55 NA 2 24 8 56 "c" "n" 964.36 1 100 1000 "1" 0 1 324
"231" 5 65 "?" "N" "f" -364.1 NA 8 56 3 24 "c" "j" 651.58 1 1000 100 "0" 0 0 325
"231" 6 1 "?" "N" "f" 542.2 NA 8 24 3 56 "i" "j" 993.74 1 1000 100 "-1" 0 -1 326
"231" 6 2 "?" "N" "f" -445.96 NA 2 56 7 24 "i" "n" 771.78 1 1000 100 "0" 0 0 327
"231" 6 3 "?" "P" "d" 337.95 NA 8 56 4 24 "c" "j" 1569.74 1 100 100 "1" 0 1 328
"231" 6 4 "?" "P" "d" 301.54 NA 2 24 7 56 "c" "n" 1825.03 1 100 1000 "0" 0 0 329
"231" 6 5 "?" "N" "f" -506.43 NA 7 56 3 24 "c" "j" 812.18 1 1000 1000 "1" 0 1 330
"231" 6 6 "?" "N" "f" 411.8 NA 2 24 7 56 "c" "n" 789.2 1 100 1000 "0" 0 0 331
"231" 6 7 "?" "P" "d" 191.79 NA 7 56 3 24 "c" "j" 582.17 1 1000 1000 "1" 0 1 332
"231" 6 8 "?" "N" "f" 1586.91 NA 7 24 4 56 "i" "j" 666.22 1 100 1000 "1" 0 1 333
"231" 6 9 "?" "P" "d" 461.18 NA 8 56 2 24 "c" "j" 1205.68 1 100 100 "1" 0 1 334
"231" 6 10 "?" "P" "d" 270.68 NA 8 56 3 24 "c" "j" 1118.03 1 100 1000 "0" 0 0 335
"231" 6 11 "?" "P" "d" -416.66 NA 7 24 4 56 "i" "n" 1306.51 1 1000 1000 "0" 0 0 336
"231" 6 12 "?" "N" "f" -518.44 NA 9 24 3 56 "i" "j" 1001.89 1 1000 1000 "1" 0 1 337
"231" 6 13 "?" "N" "f" -522.71 NA 9 24 4 56 "i" "j" 570.97 1 1000 1000 "0" 0 0 338
"231" 6 14 "?" "N" "f" 550.7 NA 3 56 9 24 "i" "n" 727.46 1 100 100 "0" 0 0 339
"231" 6 15 "?" "P" "d" -209.94 NA 9 24 2 56 "i" "n" 839.71 1 1000 100 "1" 0 1 340
"231" 6 16 "?" "P" "d" 676 NA 9 24 3 56 "i" "n" 774.74 1 100 1000 "0" 0 0 341
"231" 6 17 "?" "N" "f" -583.99 NA 2 24 9 56 "c" "n" 1466.52 1 1000 100 "1" 0 1 342
"231" 6 18 "?" "N" "f" -384.76 NA 3 56 8 24 "i" "n" 820.96 1 1000 1000 "0" 0 0 343
"231" 6 19 "?" "N" "f" 459.86 NA 9 24 4 56 "i" "j" 2081.51 1 1000 100 "0" 0 0 344
"231" 6 20 "?" "P" "d" 525.88 NA 3 56 9 24 "i" "j" 775.47 1 100 100 "1" 0 1 345
"231" 6 21 "?" "P" "d" 353.05 NA 4 56 9 24 "i" "j" 509.86 1 100 1000 "0" 0 0 346
"231" 6 22 "?" "N" "f" -412.92 NA 3 56 8 24 "i" "n" 995.18 1 1000 1000 "1" 0 1 347
"231" 6 23 "?" "N" "f" -467.98 NA 7 56 2 24 "c" "j" 671.21 1 1000 100 "0" 0 0 348
"231" 6 24 "?" "P" "d" 270.23 NA 7 56 3 24 "c" "j" 2884.2 1 100 1000 "1" 0 1 349
"231" 6 25 "?" "P" "d" 348.11 NA 8 56 4 24 "c" "j" 1748.81 1 100 100 "0" 0 0 350
"231" 6 26 "?" "P" "d" 403.53 NA 7 24 2 56 "i" "n" 634.75 1 100 100 "0" 0 0 351
"231" 6 27 "?" "N" "f" -331.46 NA 8 24 4 56 "i" "j" 1674.62 1 1000 100 "1" 0 1 352
"231" 6 28 "?" "N" "f" -11.83 NA 2 56 8 24 "i" "n" 3444.43 1 1000 1000 "0" 0 0 353
"231" 6 29 "?" "P" "d" -415.43 NA 4 24 9 56 "c" "n" 3817.57 1 1000 100 "1" 0 1 354
"231" 6 30 "?" "P" "d" -341.44 NA 7 56 2 24 "c" "j" 571.53 1 1000 1000 "0" 0 0 355
"231" 6 31 "?" "P" "d" -327.96 NA 4 24 9 56 "c" "n" 933.74 1 1000 1000 "0" 0 0 356
"231" 6 32 "?" "N" "f" -327.27 NA 9 24 2 56 "i" "j" 856.56 1 1000 100 "1" 0 1 357
"231" 6 33 "?" "N" "f" -596.58 NA 3 24 9 56 "c" "n" 621.22 1 1000 100 "0" 0 0 358
"231" 6 34 "?" "N" "f" 348.42 NA 8 24 2 56 "i" "j" 625.15 1 100 100 "0" 0 0 359
"231" 6 35 "?" "N" "f" -268.64 NA 7 24 4 56 "i" "j" 847.12 1 1000 1000 "0" 0 0 360
"231" 6 36 "?" "N" "f" -27.23 NA 2 24 7 56 "c" "n" 548.06 1 1000 1000 "0" 0 0 361
"231" 6 37 "?" "P" "d" 370.33 NA 4 24 7 56 "c" "n" 713.51 1 100 1000 "1" 0 1 362
"231" 6 38 "?" "P" "d" 334.73 NA 9 56 3 24 "c" "j" 722.58 1 100 1000 "0" 0 0 363
"231" 6 39 "?" "P" "d" 1115.33 NA 4 56 9 24 "i" "j" 419.49 1 100 1000 "0" 0 0 364
"231" 6 40 "?" "P" "d" 401.56 NA 7 56 3 24 "c" "j" 545.54 1 100 100 "0" 0 0 365
"231" 6 41 "?" "P" "d" -366.06 NA 9 56 4 24 "c" "j" 1358.46 1 1000 100 "0" 0 0 366
"231" 6 42 "?" "P" "d" 576.49 NA 3 24 8 56 "c" "n" 550.78 1 100 100 "0" 0 0 367
"231" 6 43 "?" "P" "d" -349.04 NA 8 56 4 24 "c" "j" 621.25 1 1000 100 "0" 0 0 368
"231" 6 44 "?" "N" "f" -81.05 NA 9 56 3 24 "c" "j" 776.62 1 1000 100 "1" 0 1 369
"231" 6 45 "?" "N" "f" -390.47 NA 2 24 9 56 "c" "n" 546.22 1 1000 100 "0" 0 0 370
"231" 6 46 "?" "N" "f" -410.36 NA 3 24 9 56 "c" "n" 570.95 1 1000 1000 "0" 0 0 371
"231" 6 47 "?" "N" "f" -2.3 NA 2 56 7 24 "i" "j" 911.02 0 1000 100 "0" 0 0 372
"231" 6 48 "?" "N" "f" 365.27 NA 7 56 4 24 "c" "j" 983.45 1 1000 1000 "0" 1 0 373
"231" 6 49 "?" "N" "f" 382.08 NA 3 24 9 56 "c" "n" 545.35 1 1000 1000 "0" 0 0 374
"231" 6 50 "?" "P" "d" 468.27 NA 2 56 7 24 "i" "j" 487.4 1 100 100 "1" 0 1 375
"231" 6 51 "?" "P" "d" -430.57 NA 3 56 9 24 "i" "j" 663.26 1 1000 100 "0" 0 0 376
"231" 6 52 "?" "P" "d" 987.89 NA 4 56 9 24 "i" "j" 859.55 1 100 1000 "0" 0 0 377
"231" 6 53 "?" "P" "d" 454.48 NA 2 24 9 56 "c" "n" 613.35 1 100 100 "0" 0 0 378
"231" 6 54 "?" "P" "d" 650.88 NA 7 24 4 56 "i" "n" 1537.47 1 100 100 "0" 0 0 379
"231" 6 55 "?" "P" "d" 627.67 NA 2 56 8 24 "i" "j" 820.56 1 1000 1000 "0" 0 0 380
"231" 6 56 "?" "N" "f" 730.63 NA 7 24 3 56 "i" "j" 870.05 1 100 100 "1" 0 1 381
"231" 6 57 "?" "P" "d" 606.18 NA 7 24 4 56 "i" "n" 1322.95 1 100 1000 "1" 0 1 382
"231" 6 58 "?" "N" "f" 226.53 NA 2 24 7 56 "c" "n" 708.2 1 100 100 "1" 0 1 383
"231" 6 59 "?" "P" "d" -324.65 NA 9 24 4 56 "i" "n" 645.36 1 1000 100 "1" 0 1 384
"231" 6 60 "?" "N" "f" 356.59 NA 3 24 8 56 "c" "n" 1020.45 1 100 100 "1" 0 1 385
"231" 6 61 "?" "P" "d" 617.65 NA 8 24 2 56 "i" "n" 878.86 1 100 1000 "1" 0 1 386
"231" 6 62 "?" "N" "f" 288.99 NA 4 24 9 56 "c" "n" 737.82 1 100 1000 "1" 0 1 387
"231" 6 63 "?" "P" "d" 618.2 NA 8 56 3 24 "c" "j" 1329.79 1 100 1000 "1" 0 1 388
"231" 6 64 "?" "N" "f" 198.88 NA 4 56 8 24 "i" "n" 1153.59 1 100 100 "1" 0 1 389
"231" 6 65 "?" "P" "d" 639.55 NA 9 24 3 56 "i" "n" 1266.41 1 100 1000 "1" 0 1 390
"229" 1 1 "?" "N" "d" 1295.08 NA 8 24 3 56 "i" "j" 1417.61 1 100 1000 "-1" 0 -1 1
"229" 1 2 "?" "P" "f" 1260.64 NA 8 24 2 56 "i" "n" 1226.23 1 1000 100 "1" 0 1 2
"229" 1 3 "?" "N" "d" 994.43 NA 7 56 3 24 "c" "j" 776.02 1 100 1000 "1" 0 1 3
"229" 1 4 "?" "P" "f" -20.35 NA 2 24 8 56 "c" "n" 2029.03 1 1000 1000 "1" 0 1 4
"229" 1 5 "?" "P" "f" 770.86 NA 8 56 3 24 "c" "j" 2840.57 1 1000 100 "0" 0 0 5
"229" 1 6 "?" "N" "d" 730.29 NA 7 56 4 24 "c" "j" 1037.53 1 1000 1000 "1" 0 1 6
"229" 1 7 "?" "N" "d" 1742.35 NA 7 24 2 56 "i" "j" 1335.73 1 1000 1000 "0" 0 0 7
"229" 1 8 "?" "P" "f" 1436.93 NA 3 56 9 24 "i" "j" 1443.38 1 100 1000 "1" 0 1 8
"229" 1 9 "?" "P" "f" 2130.44 NA 4 56 9 24 "i" "j" 1216.8 1 100 100 "0" 0 0 9
"229" 1 10 "?" "P" "f" 978.49 NA 9 56 2 24 "c" "j" 923.38 1 1000 1000 "0" 0 0 10
"229" 1 11 "?" "N" "d" 450.24 NA 9 24 3 56 "i" "j" 1007.67 1 1000 1000 "1" 0 1 11
"229" 1 12 "?" "N" "d" 1543.27 NA 7 56 4 24 "c" "j" 2418.48 1 1000 100 "0" 0 0 12
"229" 1 13 "?" "P" "f" 2385.95 NA 2 24 9 56 "c" "n" 1075.88 1 100 100 "1" 0 1 13
"229" 1 14 "?" "P" "f" 1555.54 NA 3 56 7 24 "i" "j" 961.67 1 1000 100 "0" 0 0 14
"229" 1 15 "?" "N" "d" 1222.02 NA 7 24 2 56 "i" "j" 4630.71 1 100 100 "1" 0 1 15
"229" 1 16 "?" "P" "f" 1557.12 NA 3 56 7 24 "i" "j" 1018.82 1 100 1000 "1" 0 1 16
"229" 1 17 "?" "P" "f" 897.2 NA 7 24 2 56 "i" "n" 1365.29 1 100 100 "0" 0 0 17
"229" 1 18 "?" "N" "d" 1000.29 NA 8 56 4 24 "c" "j" 1795.25 1 100 100 "1" 0 1 18
"229" 1 19 "?" "N" "d" 1040.53 NA 2 24 7 56 "c" "n" 1031.84 1 100 100 "0" 0 0 19
"229" 1 20 "?" "P" "f" 155.62 NA 4 56 8 24 "i" "j" 1785.32 1 1000 100 "1" 0 1 20
"229" 1 21 "?" "P" "f" 2082.8 NA 9 24 3 56 "i" "n" 1061.83 1 100 100 "0" 0 0 21
"229" 1 22 "?" "N" "d" 1267.6 NA 7 56 4 24 "c" "j" 1491.21 1 100 100 "1" 0 1 22
"229" 1 23 "?" "N" "d" 981.34 NA 3 56 9 24 "i" "n" 2894.42 1 100 1000 "0" 0 0 23
"229" 1 24 "?" "P" "f" 295.78 NA 4 24 8 56 "c" "n" 1227.97 1 1000 1000 "1" 0 1 24
"229" 1 25 "?" "P" "f" 1535.22 NA 7 56 3 24 "c" "j" 2995.34 1 1000 100 "0" 0 0 25
"229" 1 26 "?" "P" "f" 240.31 NA 4 24 9 56 "c" "n" 1537.19 1 1000 1000 "0" 0 0 26
"229" 1 27 "?" "N" "d" 1326.57 NA 2 56 9 24 "i" "n" 886.88 1 100 1000 "1" 0 1 27
"229" 1 28 "?" "N" "d" 200.17 NA 9 56 4 24 "c" "j" 2830.29 1 1000 1000 "0" 0 0 28
"229" 1 29 "?" "P" "f" 1266.83 NA 3 24 7 56 "c" "n" 1524.8 1 100 100 "1" 0 1 29
"229" 1 30 "?" "P" "f" 339.48 NA 7 24 2 56 "i" "n" 1266.51 1 1000 1000 "0" 0 0 30
"229" 1 31 "?" "N" "d" 2104.08 NA 8 24 4 56 "i" "j" 1070.87 1 100 1000 "1" 0 1 31
"229" 1 32 "?" "N" "d" 1349.39 NA 2 24 8 56 "c" "n" 3649.8 1 100 1000 "0" 0 0 32
"229" 1 33 "?" "P" "f" 1088.84 NA 4 24 9 56 "c" "n" 2783.53 1 100 1000 "1" 0 1 33
"229" 1 34 "?" "P" "f" 222.96 NA 7 24 3 56 "i" "n" 2820.81 1 1000 100 "0" 0 0 34
"229" 1 35 "?" "N" "d" 672.25 NA 4 56 9 24 "i" "n" 1806.67 1 100 100 "1" 0 1 35
"229" 1 36 "?" "N" "d" 450.81 NA 7 24 2 56 "i" "j" 1409.2 1 100 100 "0" 0 0 36
"229" 1 37 "?" "P" "f" 1139.99 NA 9 56 4 24 "c" "j" 2560.35 1 100 1000 "1" 0 1 37
"229" 1 38 "?" "P" "f" 13.86 NA 3 56 8 24 "i" "j" 1735.86 1 1000 1000 "0" 0 0 38
"229" 1 39 "?" "N" "d" 941.47 NA 2 56 7 24 "i" "n" 2428.39 1 100 100 "1" 0 1 39
"229" 1 40 "?" "N" "d" -301.1 NA 4 24 9 56 "c" "n" 1614.29 1 1000 100 "0" 0 0 40
"229" 1 41 "?" "P" "f" -488.53 NA 8 24 2 56 "i" "n" 2079.48 1 1000 100 "1" 0 1 41
"229" 1 42 "?" "P" "f" -40.52 NA 3 56 8 24 "i" "j" 1335.18 1 1000 100 "0" 0 0 42
"229" 1 43 "?" "N" "d" 1104.53 NA 4 24 9 56 "c" "n" 1714.26 1 100 1000 "1" 0 1 43
"229" 1 44 "?" "P" "f" -140.09 NA 8 24 3 56 "i" "n" 1178.31 1 1000 1000 "1" 0 1 44
"229" 1 45 "?" "P" "f" 61.89 NA 4 24 8 56 "c" "n" 1937.12 1 1000 100 "0" 0 0 45
"229" 1 46 "?" "P" "f" 751.56 NA 9 56 2 24 "c" "j" 1296.21 1 100 100 "0" 0 0 46
"229" 1 47 "?" "N" "d" 761.72 NA 9 56 3 24 "c" "j" 2217.64 1 100 100 "1" 0 1 47
"229" 1 48 "?" "N" "d" 33.43 NA 2 56 8 24 "i" "n" 1346.2 1 1000 100 "0" 0 0 48
"229" 1 49 "?" "P" "f" 175.34 NA 9 24 4 56 "i" "n" 1258.58 1 1000 1000 "1" 0 1 49
"229" 1 50 "?" "N" "d" 723.33 NA 2 24 7 56 "c" "n" 2223.48 1 100 100 "1" 0 1 50
"229" 1 51 "?" "N" "d" 889.55 NA 3 56 7 24 "i" "n" 4889.32 1 100 1000 "0" 0 0 51
"229" 1 52 "?" "P" "f" 1430.25 NA 8 56 2 24 "c" "j" 1002.79 1 1000 1000 "1" 0 1 52
"229" 1 53 "?" "P" "f" 1212.08 NA 3 24 8 56 "c" "n" 1518.7 1 1000 1000 "0" 0 0 53
"229" 1 54 "?" "N" "d" 762.02 NA 7 24 2 56 "i" "j" 5480.39 1 100 1000 "1" 0 1 54
"229" 1 55 "?" "N" "d" 2140.23 NA 9 24 4 56 "i" "j" 1850.3 1 1000 1000 "0" 0 0 55
"229" 1 56 "?" "P" "f" 1136.06 NA 9 56 3 24 "c" "j" 1476.99 1 100 1000 "1" 0 1 56
"229" 1 57 "?" "P" "f" -99.06 NA 9 24 2 56 "i" "j" 3232.57 0 1000 1000 "0" 0 0 57
"229" 1 58 "?" "N" "d" 582.65 NA 4 56 7 24 "i" "n" 6744.27 1 100 1000 "1" 1 1 58
"229" 1 59 "?" "P" "f" 663.63 NA 2 24 8 56 "c" "n" 2522.82 1 100 1000 "1" 0 1 59
"229" 1 60 "?" "N" "d" 854.76 NA 9 56 4 24 "c" "j" 2884.96 1 100 1000 "1" 0 1 60
"229" 1 61 "?" "P" "f" 1202.43 NA 2 24 7 56 "c" "n" 1409.86 1 1000 100 "1" 0 1 61
"229" 1 62 "?" "P" "f" 656.96 NA 3 56 9 24 "i" "j" 2258.3 1 100 100 "0" 0 0 62
"229" 1 63 "?" "N" "d" -281.93 NA 8 56 4 24 "c" "j" 4974.71 1 1000 100 "1" 0 1 63
"229" 1 64 "?" "N" "d" -81.98 NA 2 24 9 56 "c" "n" 1338.31 1 1000 100 "0" 0 0 64
"229" 1 65 "?" "P" "f" -1.01 NA 4 56 9 24 "i" "j" 5237.78 1 1000 100 "1" 0 1 65
"229" 2 1 "?" "N" "d" 957.74 NA 9 24 3 56 "i" "j" 1346.49 1 1000 1000 "-1" 0 -1 66
"229" 2 2 "?" "P" "f" 164.04 NA 9 56 2 24 "c" "j" 1646.96 1 1000 100 "1" 0 1 67
"229" 2 3 "?" "N" "d" 390.56 NA 4 56 9 24 "i" "n" 1629.12 1 100 100 "1" 0 1 68
"229" 2 4 "?" "N" "d" 254 NA 2 24 8 56 "c" "n" 578.23 1 100 1000 "0" 0 0 69
"229" 2 5 "?" "N" "d" -332.27 NA 7 56 4 24 "c" "j" 1897.3 1 1000 1000 "0" 0 0 70
"229" 2 6 "?" "P" "f" -523.29 NA 9 24 3 56 "i" "n" 953.37 1 1000 100 "1" 0 1 71
"229" 2 7 "?" "P" "f" 268.85 NA 2 56 9 24 "i" "j" 903.69 1 100 100 "0" 0 0 72
"229" 2 8 "?" "N" "d" 403.79 NA 9 56 3 24 "c" "j" 2581.38 1 100 100 "1" 0 1 73
"229" 2 9 "?" "P" "f" 2416.02 NA 4 56 9 24 "i" "j" 1668.6 1 100 1000 "1" 0 1 74
"229" 2 10 "?" "P" "f" 518.94 NA 7 24 2 56 "i" "n" 497.92 1 100 1000 "0" 0 0 75
"229" 2 11 "?" "N" "d" 404.02 NA 8 24 4 56 "i" "j" 938.42 1 100 100 "1" 0 1 76
"229" 2 12 "?" "N" "d" 337.72 NA 3 24 8 56 "c" "n" 1344.8 1 100 100 "0" 0 0 77
"229" 2 13 "?" "P" "f" -558.33 NA 8 24 4 56 "i" "n" 816.01 1 1000 1000 "1" 0 1 78
"229" 2 14 "?" "P" "f" 304.43 NA 7 56 3 24 "c" "j" 971.92 1 100 1000 "0" 0 0 79
"229" 2 15 "?" "N" "d" 214.02 NA 9 24 4 56 "i" "j" 3391.6 1 100 100 "1" 0 1 80
"229" 2 16 "?" "N" "d" -699.57 NA 7 24 3 56 "i" "j" 991.06 1 1000 100 "0" 0 0 81
"229" 2 17 "?" "P" "f" -685.89 NA 8 24 4 56 "i" "n" 756.66 1 1000 100 "1" 0 1 82
"229" 2 18 "?" "N" "d" -528.82 NA 8 24 2 56 "i" "j" 1465.02 1 1000 100 "1" 0 1 83
"229" 2 19 "?" "P" "f" 189.49 NA 4 24 8 56 "c" "n" 2314.14 1 100 1000 "1" 0 1 84
"229" 2 20 "?" "P" "f" 210.14 NA 3 24 8 56 "c" "n" 527.97 1 100 1000 "0" 0 0 85
"229" 2 21 "?" "N" "d" -636.39 NA 4 56 8 24 "i" "n" 1706.77 1 1000 100 "1" 0 1 86
"229" 2 22 "?" "P" "f" -676.52 NA 2 24 7 56 "c" "n" 1643.42 1 1000 1000 "1" 0 1 87
"229" 2 23 "?" "N" "d" 83.31 NA 3 56 8 24 "i" "n" 1705.47 1 100 1000 "1" 0 1 88
"229" 2 24 "?" "N" "d" -723.6 NA 4 24 8 56 "c" "n" 2406.96 1 1000 100 "0" 0 0 89
"229" 2 25 "?" "P" "f" 214.87 NA 3 56 9 24 "i" "j" 757.38 1 100 1000 "1" 0 1 90
"229" 2 26 "?" "P" "f" -685.54 NA 9 24 4 56 "i" "n" 1140.24 1 1000 100 "0" 0 0 91
"229" 2 27 "?" "N" "d" -541.07 NA 8 56 2 24 "c" "j" 1014.2 1 1000 100 "1" 0 1 92
"229" 2 28 "?" "P" "f" 369.78 NA 8 56 4 24 "c" "j" 1208.36 1 100 100 "1" 0 1 93
"229" 2 29 "?" "N" "d" -449.27 NA 7 56 3 24 "c" "j" 3412.85 1 1000 100 "1" 0 1 94
"229" 2 30 "?" "P" "f" 275.04 NA 7 24 2 56 "i" "n" 6725.74 1 100 1000 "1" 0 1 95
"229" 2 31 "?" "P" "f" -713.34 NA 3 24 8 56 "c" "n" 2213.6 1 1000 1000 "0" 0 0 96
"229" 2 32 "?" "N" "d" -692.37 NA 2 56 9 24 "i" "n" 896.58 1 1000 1000 "1" 0 1 97
"229" 2 33 "?" "P" "f" 143 NA 9 24 3 56 "i" "n" 1721.11 1 100 100 "1" 0 1 98
"229" 2 34 "?" "N" "d" 144.45 NA 9 56 4 24 "c" "j" 2577.42 1 100 1000 "1" 0 1 99
"229" 2 35 "?" "P" "f" 262.92 NA 7 56 2 24 "c" "j" 2343.41 1 100 100 "1" 0 1 100
"229" 2 36 "?" "P" "f" -673.35 NA 3 24 9 56 "c" "n" 2018.35 1 1000 100 "0" 0 0 101
"229" 2 37 "?" "P" "f" 766.13 NA 8 56 4 24 "c" "j" 1108.35 1 100 100 "0" 0 0 102
"229" 2 38 "?" "N" "d" -685.21 NA 9 56 3 24 "c" "j" 4211.85 1 1000 100 "1" 0 1 103
"229" 2 39 "?" "N" "d" 228 NA 8 56 2 24 "c" "j" 934.92 1 100 1000 "0" 0 0 104
"229" 2 40 "?" "N" "d" 193.06 NA 4 56 8 24 "i" "n" 933.05 1 100 1000 "0" 0 0 105
"229" 2 41 "?" "P" "f" -598.06 NA 9 56 3 24 "c" "j" 1619.92 1 1000 1000 "1" 0 1 106
"229" 2 42 "?" "N" "d" 470.75 NA 2 24 9 56 "c" "n" 3538.79 1 100 100 "1" 0 1 107
"229" 2 43 "?" "P" "f" -624.31 NA 3 56 7 24 "i" "j" 3709.01 1 1000 1000 "1" 0 1 108
"229" 2 44 "?" "P" "f" -484.9 NA 7 24 4 56 "i" "n" 1429.43 1 1000 1000 "0" 0 0 109
"229" 2 45 "?" "N" "d" -230.98 NA 8 24 2 56 "i" "j" 2223.25 1 1000 1000 "1" 0 1 110
"229" 2 46 "?" "N" "d" -654.24 NA 7 24 4 56 "i" "j" 1024 1 1000 1000 "0" 0 0 111
"229" 2 47 "?" "P" "f" -697.32 NA 2 56 8 24 "i" "j" 1184.8 1 1000 100 "1" 0 1 112
"229" 2 48 "?" "P" "f" 237.38 NA 3 56 7 24 "i" "j" 545.16 1 100 1000 "0" 0 0 113
"229" 2 49 "?" "N" "d" 254.8 NA 4 24 7 56 "c" "n" 1163.75 1 100 1000 "1" 0 1 114
"229" 2 50 "?" "N" "d" 110.11 NA 2 24 9 56 "c" "n" 833.56 1 100 100 "0" 0 0 115
"229" 2 51 "?" "P" "f" 641.42 NA 4 56 8 24 "i" "j" 1055.13 1 100 1000 "1" 0 1 116
"229" 2 52 "?" "P" "f" 191.15 NA 9 24 3 56 "i" "n" 909.52 1 100 100 "0" 0 0 117
"229" 2 53 "?" "N" "d" -717.41 NA 8 56 4 24 "c" "j" 5202.3 1 1000 1000 "1" 0 1 118
"229" 2 54 "?" "P" "f" 447.61 NA 8 56 2 24 "c" "j" 1781.17 1 1000 1000 "1" 0 1 119
"229" 2 55 "?" "N" "d" -489.05 NA 4 24 7 56 "c" "n" 1224.37 1 1000 100 "1" 0 1 120
"229" 2 56 "?" "P" "f" -630.03 NA 3 24 9 56 "c" "n" 880.39 1 1000 100 "1" 0 1 121
"229" 2 57 "?" "N" "d" -657.52 NA 2 24 9 56 "c" "n" 716.9 1 1000 1000 "1" 0 1 122
"229" 2 58 "?" "N" "d" 193.03 NA 9 24 4 56 "i" "j" 989.79 1 100 100 "0" 0 0 123
"229" 2 59 "?" "N" "d" 204.48 NA 3 56 8 24 "i" "n" 770.45 1 100 100 "0" 0 0 124
"229" 2 60 "?" "P" "f" 595.98 NA 4 24 7 56 "c" "n" 1093.38 1 100 100 "1" 0 1 125
"229" 2 61 "?" "P" "f" -177.22 NA 2 24 7 56 "c" "n" 1084.92 1 1000 1000 "0" 0 0 126
"229" 2 62 "?" "P" "f" 171 NA 7 56 3 24 "c" "j" 645.73 1 100 1000 "0" 0 0 127
"229" 2 63 "?" "N" "d" -725.33 NA 8 24 2 56 "i" "j" 671.93 1 1000 1000 "1" 0 1 128
"229" 2 64 "?" "N" "d" -508.19 NA 3 56 7 24 "i" "n" 1192.27 1 1000 1000 "0" 0 0 129
"229" 2 65 "?" "P" "f" -628.3 NA 2 56 7 24 "i" "j" 713.75 1 1000 100 "1" 0 1 130
"229" 3 1 "?" "N" "d" 7836.56 NA 7 56 3 24 "c" "j" 518.4 1 1000 1000 "-1" 0 -1 131
"229" 3 2 "?" "N" "d" -634.95 NA 9 56 4 24 "c" "j" 525.25 1 1000 1000 "0" 0 0 132
"229" 3 3 "?" "P" "f" -661.57 NA 2 56 8 24 "i" "j" 645.13 1 1000 1000 "1" 0 1 133
"229" 3 4 "?" "P" "f" -624.96 NA 3 56 7 24 "i" "j" 469.75 1 1000 100 "0" 0 0 134
"229" 3 5 "?" "P" "f" -656.57 NA 4 56 7 24 "i" "j" 571.82 1 1000 1000 "0" 0 0 135
"229" 3 6 "?" "N" "d" 147.2 NA 3 24 7 56 "c" "n" 621.6 1 100 1000 "1" 0 1 136
"229" 3 7 "?" "N" "d" -721.9 NA 2 24 9 56 "c" "n" 687.81 1 1000 100 "0" 0 0 137
"229" 3 8 "?" "P" "f" 190.63 NA 9 56 3 24 "c" "j" 1583.39 1 100 1000 "1" 0 1 138
"229" 3 9 "?" "P" "f" -666.05 NA 4 24 7 56 "c" "n" 494.22 1 1000 1000 "0" 0 0 139
"229" 3 10 "?" "N" "d" -681.85 NA 8 24 3 56 "i" "j" 536.53 1 1000 100 "1" 0 1 140
"229" 3 11 "?" "N" "d" -690.28 NA 9 56 4 24 "c" "j" 1056.01 1 1000 100 "0" 0 0 141
"229" 3 12 "?" "P" "f" 249.45 NA 2 24 9 56 "c" "n" 4326.62 1 100 100 "1" 0 1 142
"229" 3 13 "?" "P" "f" 203.16 NA 3 24 9 56 "c" "n" 454.58 1 100 1000 "0" 0 0 143
"229" 3 14 "?" "N" "d" 135.25 NA 4 56 9 24 "i" "n" 564.94 1 100 1000 "1" 0 1 144
"229" 3 15 "?" "N" "d" 123.09 NA 3 56 8 24 "i" "n" 783.34 1 100 1000 "0" 0 0 145
"229" 3 16 "?" "P" "f" 102.34 NA 2 24 8 56 "c" "j" 2299.26 0 100 100 "1" 0 1 146
"229" 3 17 "?" "N" "d" -3.63 NA 9 56 4 24 "c" "j" 959.59 1 1000 1000 "1" 1 1 147
"229" 3 18 "?" "P" "f" 185.14 NA 8 56 3 24 "c" "j" 835.75 1 100 100 "1" 0 1 148
"229" 3 19 "?" "N" "d" -679.62 NA 8 56 4 24 "c" "j" 672.25 1 1000 1000 "1" 0 1 149
"229" 3 20 "?" "N" "d" 225.94 NA 7 24 3 56 "i" "j" 1574.94 1 100 100 "0" 0 0 150
"229" 3 21 "?" "P" "f" 182.63 NA 7 56 2 24 "c" "j" 782.74 1 100 100 "1" 0 1 151
"229" 3 22 "?" "P" "f" 495.35 NA 4 24 8 56 "c" "n" 529.71 1 100 1000 "0" 0 0 152
"229" 3 23 "?" "P" "f" -590.1 NA 7 24 2 56 "i" "n" 706.26 1 1000 100 "0" 0 0 153
"229" 3 24 "?" "N" "d" 463.81 NA 3 56 7 24 "i" "n" 1228.94 1 100 1000 "1" 0 1 154
"229" 3 25 "?" "N" "d" 502.36 NA 8 24 4 56 "i" "j" 1488.45 1 100 100 "0" 0 0 155
"229" 3 26 "?" "P" "f" -160.09 NA 7 24 3 56 "i" "n" 1427.74 1 1000 1000 "1" 0 1 156
"229" 3 27 "?" "P" "f" 354.86 NA 4 56 9 24 "i" "j" 657.82 1 100 1000 "0" 0 0 157
"229" 3 28 "?" "N" "d" 172.69 NA 2 56 7 24 "i" "n" 1559.85 1 100 100 "1" 0 1 158
"229" 3 29 "?" "N" "d" 105.55 NA 3 56 8 24 "i" "n" 1143.72 1 100 100 "0" 0 0 159
"229" 3 30 "?" "P" "f" -750.9 NA 4 24 8 56 "c" "n" 1153.8 1 1000 100 "1" 0 1 160
"229" 3 31 "?" "N" "d" -735.15 NA 2 56 7 24 "i" "n" 1191.39 1 1000 100 "1" 0 1 161
"229" 3 32 "?" "P" "f" -730.64 NA 4 56 8 24 "i" "j" 1071.87 1 1000 1000 "1" 0 1 162
"229" 3 33 "?" "P" "f" -564.92 NA 3 56 7 24 "i" "j" 877.16 1 1000 1000 "0" 0 0 163
"229" 3 34 "?" "N" "d" -739.46 NA 7 56 4 24 "c" "j" 1896.23 1 1000 100 "1" 0 1 164
"229" 3 35 "?" "P" "f" 220.75 NA 9 56 3 24 "c" "n" 1963.43 0 100 100 "1" 0 1 165
"229" 3 36 "?" "P" "f" 2302.34 NA 9 24 2 56 "i" "n" 479.83 1 100 100 "0" 1 0 166
"229" 3 37 "?" "P" "f" -556.12 NA 4 24 9 56 "c" "n" 570.89 1 1000 1000 "0" 0 0 167
"229" 3 38 "?" "P" "f" 370.4 NA 7 56 3 24 "c" "j" 883.1 1 100 100 "0" 0 0 168
"229" 3 39 "?" "N" "d" 147.24 NA 8 24 4 56 "i" "j" 756.84 1 100 1000 "1" 0 1 169
"229" 3 40 "?" "N" "d" -652.52 NA 2 24 9 56 "c" "n" 834.19 1 1000 1000 "0" 0 0 170
"229" 3 41 "?" "P" "f" -720.6 NA 4 56 7 24 "i" "j" 2421.17 1 1000 100 "1" 0 1 171
"229" 3 42 "?" "P" "f" 155.34 NA 2 56 9 24 "i" "j" 884.92 1 100 100 "0" 0 0 172
"229" 3 43 "?" "N" "d" 120.68 NA 3 24 7 56 "c" "n" 1186.99 1 100 100 "1" 0 1 173
"229" 3 44 "?" "N" "d" -555.45 NA 2 56 7 24 "i" "n" 808.78 1 1000 100 "0" 0 0 174
"229" 3 45 "?" "P" "f" -673.36 NA 8 24 4 56 "i" "n" 3750.39 1 1000 1000 "1" 0 1 175
"229" 3 46 "?" "N" "d" 256.71 NA 8 24 2 56 "i" "j" 1290 1 100 1000 "1" 0 1 176
"229" 3 47 "?" "P" "f" 361.23 NA 3 56 7 24 "i" "j" 687.33 1 100 100 "1" 0 1 177
"229" 3 48 "?" "N" "d" 269.83 NA 4 56 8 24 "i" "n" 1320.7 1 100 100 "1" 0 1 178
"229" 3 49 "?" "N" "d" -554.57 NA 7 24 2 56 "i" "j" 753.46 1 1000 100 "0" 0 0 179
"229" 3 50 "?" "P" "f" -577.36 NA 4 24 8 56 "c" "n" 2215.12 1 1000 100 "1" 0 1 180
"229" 3 51 "?" "P" "f" -645.34 NA 9 56 2 24 "c" "j" 583.41 1 1000 100 "0" 0 0 181
"229" 3 52 "?" "N" "d" -709.98 NA 3 24 9 56 "c" "n" 733.37 1 1000 100 "1" 0 1 182
"229" 3 53 "?" "P" "f" 226.05 NA 7 56 4 24 "c" "j" 876.17 1 100 1000 "1" 0 1 183
"229" 3 54 "?" "N" "d" 184.15 NA 8 56 3 24 "c" "j" 811.71 1 100 1000 "1" 0 1 184
"229" 3 55 "?" "P" "f" 198.79 NA 4 24 8 56 "c" "n" 657.25 1 100 1000 "1" 0 1 185
"229" 3 56 "?" "N" "d" 193.51 NA 2 56 9 24 "i" "n" 584.75 1 100 1000 "1" 0 1 186
"229" 3 57 "?" "N" "d" -353.97 NA 3 56 8 24 "i" "n" 649.82 1 1000 1000 "0" 0 0 187
"229" 3 58 "?" "P" "f" -485.69 NA 8 24 2 56 "i" "n" 901.57 1 1000 100 "1" 0 1 188
"229" 3 59 "?" "P" "f" 316.76 NA 3 24 7 56 "c" "n" 749.37 1 100 100 "0" 0 0 189
"229" 3 60 "?" "N" "d" -519.64 NA 7 56 4 24 "c" "j" 1417.19 1 1000 1000 "1" 0 1 190
"229" 3 61 "?" "P" "f" 338.3 NA 8 56 3 24 "c" "j" 894.23 1 100 1000 "1" 0 1 191
"229" 3 62 "?" "P" "f" 28 NA 8 56 2 24 "c" "j" 687.37 1 1000 100 "0" 0 0 192
"229" 3 63 "?" "N" "d" -655.13 NA 4 56 8 24 "i" "n" 719.29 1 1000 1000 "1" 0 1 193
"229" 3 64 "?" "P" "f" -701.62 NA 3 24 7 56 "c" "n" 739.89 1 1000 1000 "1" 0 1 194
"229" 3 65 "?" "N" "d" 193.49 NA 9 24 4 56 "i" "j" 2441.58 1 100 1000 "1" 0 1 195
"229" 4 1 "?" "N" "d" 2422.29 NA 9 56 4 24 "c" "j" 673.09 1 100 1000 "-1" 0 -1 196
"229" 4 2 "?" "P" "f" -506.31 NA 7 56 3 24 "c" "j" 587.98 1 1000 100 "1" 0 1 197
"229" 4 3 "?" "N" "d" 134.68 NA 2 24 9 56 "c" "n" 1544.54 1 100 100 "1" 0 1 198
"229" 4 4 "?" "N" "d" -660.07 NA 7 24 4 56 "i" "n" 1266.53 0 1000 100 "0" 0 0 199
"229" 4 5 "?" "P" "f" 651.95 NA 2 56 8 24 "i" "j" 1487.92 1 1000 100 "1" 1 1 200
"229" 4 6 "?" "P" "f" -666.92 NA 3 56 9 24 "i" "j" 674.12 1 1000 1000 "0" 0 0 201
"229" 4 7 "?" "N" "d" -731.07 NA 2 24 7 56 "c" "n" 1713.48 1 1000 100 "1" 0 1 202
"229" 4 8 "?" "N" "d" 288.32 NA 4 24 8 56 "c" "n" 536.38 1 100 100 "0" 0 0 203
"229" 4 9 "?" "P" "f" 234.18 NA 8 56 3 24 "c" "j" 654.95 1 100 100 "1" 0 1 204
"229" 4 10 "?" "N" "d" -676.6 NA 2 24 9 56 "c" "n" 2700.85 1 1000 100 "1" 0 1 205
"229" 4 11 "?" "P" "f" 270.05 NA 3 56 7 24 "i" "j" 1659.27 1 100 100 "1" 0 1 206
"229" 4 12 "?" "P" "f" 149.78 NA 8 24 4 56 "i" "n" 636.43 1 100 100 "0" 0 0 207
"229" 4 13 "?" "N" "d" -746.23 NA 3 24 9 56 "c" "n" 1303.32 1 1000 1000 "1" 0 1 208
"229" 4 14 "?" "N" "d" 99.25 NA 8 56 4 24 "c" "j" 646.75 1 100 1000 "0" 0 0 209
"229" 4 15 "?" "P" "f" -533.41 NA 3 24 7 56 "c" "n" 673.55 1 1000 100 "1" 0 1 210
"229" 4 16 "?" "P" "f" 148.36 NA 9 56 4 24 "c" "j" 589.69 1 100 1000 "0" 0 0 211
"229" 4 17 "?" "N" "d" 362.13 NA 7 56 3 24 "c" "j" 980.82 1 100 100 "1" 0 1 212
"229" 4 18 "?" "P" "f" -454.49 NA 9 24 2 56 "i" "n" 662.4 1 1000 100 "1" 0 1 213
"229" 4 19 "?" "P" "f" 356.46 NA 8 24 4 56 "i" "n" 614.45 1 100 1000 "0" 0 0 214
"229" 4 20 "?" "N" "d" 471.11 NA 8 56 3 24 "c" "j" 826.47 1 100 1000 "1" 0 1 215
"229" 4 21 "?" "N" "d" -706.21 NA 7 56 2 24 "c" "j" 2378.59 1 1000 1000 "0" 0 0 216
"229" 4 22 "?" "P" "f" -514.6 NA 4 56 9 24 "i" "j" 837.87 1 1000 1000 "1" 0 1 217
"229" 4 23 "?" "N" "d" -92.96 NA 2 24 7 56 "c" "n" 2553.7 1 1000 100 "1" 0 1 218
"229" 4 24 "?" "P" "f" -117.68 NA 8 24 4 56 "i" "j" 2855.19 0 1000 100 "1" 0 1 219
"229" 4 25 "?" "N" "d" -487.45 NA 7 56 2 24 "c" "j" 2193.44 1 1000 100 "1" 1 1 220
"229" 4 26 "?" "N" "d" 318.33 NA 4 56 8 24 "i" "n" 384.28 1 100 1000 "0" 0 0 221
"229" 4 27 "?" "P" "f" -488.97 NA 7 24 3 56 "i" "j" 7.2 0 1000 1000 "1" 0 1 222
"229" 4 28 "?" "N" "d" 1916.33 NA 2 56 9 24 "i" "n" 2378.17 1 100 1000 "1" 1 1 223
"229" 4 29 "?" "P" "f" 319.8 NA 8 24 4 56 "i" "j" 2918.11 0 100 1000 "1" 0 1 224
"229" 4 30 "?" "N" "d" 1078.6 NA 9 56 2 24 "c" "j" 1204.39 1 1000 1000 "1" 1 1 225
"229" 4 31 "?" "P" "f" -700.94 NA 4 56 9 24 "i" "j" 752.52 1 1000 1000 "1" 0 1 226
"229" 4 32 "?" "N" "d" 132.99 NA 3 24 7 56 "c" "n" 1210.47 1 100 100 "1" 0 1 227
"229" 4 33 "?" "P" "f" -762.05 NA 7 24 4 56 "i" "n" 2637.76 1 1000 1000 "1" 0 1 228
"229" 4 34 "?" "N" "d" 109.49 NA 2 24 7 56 "c" "n" 1474.47 1 100 100 "1" 0 1 229
"229" 4 35 "?" "P" "f" 103.47 NA 4 56 9 24 "i" "j" 759.41 1 100 100 "1" 0 1 230
"229" 4 36 "?" "N" "d" 138.82 NA 3 56 8 24 "i" "n" 963.78 1 100 100 "1" 0 1 231
"229" 4 37 "?" "P" "f" 177.82 NA 9 56 2 24 "c" "j" 4029.6 1 100 100 "1" 0 1 232
"229" 4 38 "?" "N" "d" -549.05 NA 4 24 7 56 "c" "n" 1478.24 1 1000 1000 "1" 0 1 233
"229" 4 39 "?" "P" "f" 141.11 NA 9 56 2 24 "c" "j" 885.52 1 100 1000 "1" 0 1 234
"229" 4 40 "?" "N" "d" -701.89 NA 3 56 7 24 "i" "n" 785.76 1 1000 100 "1" 0 1 235
"229" 4 41 "?" "P" "f" -701.94 NA 7 56 4 24 "c" "j" 4453.78 1 1000 100 "1" 0 1 236
"229" 4 42 "?" "N" "d" -575.89 NA 3 56 8 24 "i" "n" 934.03 1 1000 100 "1" 0 1 237
"229" 4 43 "?" "P" "f" 186.67 NA 4 56 9 24 "i" "j" 1199.26 1 100 100 "1" 0 1 238
"229" 4 44 "?" "N" "d" -678.39 NA 9 24 3 56 "i" "j" 617.81 1 1000 100 "1" 0 1 239
"229" 4 45 "?" "P" "f" -747.87 NA 4 24 8 56 "c" "n" 570.85 1 1000 1000 "1" 0 1 240
"229" 4 46 "?" "P" "f" 33.59 NA 2 24 9 56 "c" "n" 670.04 1 100 1000 "0" 0 0 241
"229" 4 47 "?" "N" "d" 88.02 NA 4 56 9 24 "i" "n" 1041.76 1 100 100 "1" 0 1 242
"229" 4 48 "?" "N" "d" 117.17 NA 2 56 8 24 "i" "n" 3010.48 1 100 100 "0" 0 0 243
"229" 4 49 "?" "N" "d" -786.21 NA 3 56 9 24 "i" "n" 1454.81 1 1000 1000 "0" 0 0 244
"229" 4 50 "?" "P" "f" -757.13 NA 8 56 2 24 "c" "j" 494.84 1 1000 100 "1" 0 1 245
"229" 4 51 "?" "P" "f" -501.67 NA 8 56 4 24 "c" "j" 535.25 1 1000 1000 "0" 0 0 246
"229" 4 52 "?" "N" "d" 1032.88 NA 3 24 7 56 "c" "n" 465.84 1 100 1000 "1" 0 1 247
"229" 4 53 "?" "P" "f" 169.31 NA 2 24 8 56 "c" "n" 1071.59 1 100 1000 "1" 0 1 248
"229" 4 54 "?" "N" "d" 113.09 NA 9 24 3 56 "i" "j" 823.77 1 100 1000 "1" 0 1 249
"229" 4 55 "?" "P" "f" -798.92 NA 4 56 8 24 "i" "n" 520.38 0 1000 100 "1" 0 1 250
"229" 4 56 "?" "N" "d" -194.41 NA 3 56 9 24 "i" "j" -249.4 0 1000 1000 "1" 1 1 251
"229" 4 57 "?" "N" "d" 1371.61 NA 8 56 4 24 "c" "j" 2108.36 1 1000 1000 "0" 1 0 252
"229" 4 58 "?" "N" "d" -709 NA 8 24 2 56 "i" "j" 1171.51 1 1000 1000 "0" 0 0 253
"229" 4 59 "?" "P" "f" 101.49 NA 4 56 9 24 "i" "j" 2906.14 1 100 100 "1" 0 1 254
"229" 4 60 "?" "P" "f" 145.04 NA 3 56 7 24 "i" "n" 1238.87 0 100 1000 "0" 0 0 255
"229" 4 61 "?" "N" "d" -13.05 NA 4 24 8 56 "c" "j" 1440.22 0 1000 1000 "1" 1 1 256
"229" 4 62 "?" "N" "d" 597.65 NA 8 24 3 56 "i" "j" 554.29 1 100 1000 "0" 1 0 257
"229" 4 63 "?" "P" "f" 179.92 NA 4 24 8 56 "c" "n" 677.63 1 100 1000 "1" 0 1 258
"229" 4 64 "?" "P" "f" 366.83 NA 2 56 9 24 "i" "j" 928.3 1 100 1000 "0" 0 0 259
"229" 4 65 "?" "N" "d" 119.55 NA 9 56 4 24 "c" "j" 2130.9 1 100 100 "1" 0 1 260
"229" 5 1 "?" "N" "d" 1338.29 NA 4 24 9 56 "c" "j" -694.38 0 1000 1000 "-1" 0 -1 261
"229" 5 2 "?" "N" "d" 854.72 NA 3 24 7 56 "c" "j" -670.58 0 100 1000 "0" 1 0 262
"229" 5 3 "?" "P" "f" -299.1 NA 7 24 4 56 "i" "n" 850.63 1 1000 100 "1" 1 1 263
"229" 5 4 "?" "N" "d" -451.28 NA 9 24 3 56 "i" "j" 103.39 1 1000 100 "1" 0 1 264
"229" 5 5 "?" "N" "d" 820.42 NA 2 56 7 24 "i" "j" 634.75 0 100 100 "0" 0 0 265
"229" 5 6 "?" "N" "d" 717.01 NA 9 24 4 56 "i" "j" 367.17 1 100 100 "0" 1 0 266
"229" 5 7 "?" "P" "f" 1733.15 NA 8 24 3 56 "i" "n" -773.3 1 1000 1000 "1" 0 1 267
"229" 5 8 "?" "N" "d" 708.6 NA 2 24 8 56 "c" "j" -790.57 0 100 1000 "1" 0 1 268
"229" 5 9 "?" "P" "f" 246.17 NA 9 56 4 24 "c" "n" -774.29 0 100 1000 "1" 1 1 269
"229" 5 10 "?" "N" "d" -662.41 NA 2 24 7 56 "c" "n" 250.33 1 1000 1000 "1" 1 1 270
"229" 5 11 "?" "P" "f" 542.22 NA 9 24 4 56 "i" "j" 156.23 0 100 100 "1" 0 1 271
"229" 5 12 "?" "N" "d" -157.52 NA 7 56 3 24 "c" "n" -955.44 0 1000 1000 "1" 1 1 272
"229" 5 13 "?" "N" "d" 459.2 NA 8 24 2 56 "i" "n" -689.03 0 100 1000 "0" 1 0 273
"229" 5 14 "?" "P" "f" 786.43 NA 9 56 3 24 "c" "n" -773.42 0 100 1000 "1" 1 1 274
"229" 5 15 "?" "P" "f" 275.04 NA 9 24 4 56 "i" "n" -754.79 1 100 1000 "0" 1 0 275
"229" 5 16 "?" "P" "f" 1596.94 NA 7 24 3 56 "i" "j" -776.12 0 100 1000 "0" 0 0 276
"229" 5 17 "?" "N" "d" 574.73 NA 7 56 4 24 "c" "j" 1393.36 1 1000 100 "1" 1 1 277
"229" 5 18 "?" "P" "f" -419.22 NA 9 24 3 56 "i" "j" 370.21 0 1000 1000 "1" 0 1 278
"229" 5 19 "?" "N" "d" 1562.74 NA 9 24 2 56 "i" "j" 68.65 1 1000 100 "1" 1 1 279
"229" 5 20 "?" "P" "f" 97.82 NA 3 56 7 24 "i" "n" 308.65 0 1000 1000 "1" 0 1 280
"229" 5 21 "?" "N" "d" -54.51 NA 4 56 9 24 "i" "j" 307.71 0 1000 1000 "1" 1 1 281
"229" 5 22 "?" "P" "f" -336.39 NA 8 56 2 24 "c" "n" -234.34 0 1000 1000 "1" 1 1 282
"229" 5 23 "?" "P" "f" 14.13 NA 4 56 9 24 "i" "j" 589.22 1 1000 1000 "0" 1 0 283
"229" 5 24 "?" "N" "d" -372.18 NA 3 56 8 24 "i" "n" 429.09 1 1000 100 "1" 0 1 284
"229" 5 25 "?" "P" "f" 447.24 NA 9 24 4 56 "i" "j" 487.78 0 100 100 "1" 0 1 285
"229" 5 26 "?" "N" "d" -463.61 NA 8 56 3 24 "c" "n" -169.59 0 1000 1000 "1" 1 1 286
"229" 5 27 "?" "P" "f" 159.01 NA 2 24 9 56 "c" "j" 730.52 0 100 100 "1" 1 1 287
"229" 5 28 "?" "N" "d" 841.99 NA 4 24 7 56 "c" "n" 561.07 1 100 100 "1" 1 1 288
"229" 5 29 "?" "N" "d" 568.16 NA 8 56 3 24 "c" "j" 419.21 1 100 100 "0" 0 0 289
"229" 5 30 "?" "P" "f" 391.95 NA 4 56 9 24 "i" "n" -576.56 0 100 1000 "1" 0 1 290
"229" 5 31 "?" "N" "d" 662.84 NA 8 24 2 56 "i" "j" -460 1 100 1000 "1" 1 1 291
"229" 5 32 "?" "N" "d" 688.78 NA 4 56 8 24 "i" "j" 647.98 0 1000 100 "0" 0 0 292
"229" 5 33 "?" "P" "f" 432.89 NA 7 56 2 24 "c" "n" 478.32 0 100 100 "1" 1 1 293
"229" 5 34 "?" "N" "d" -490.02 NA 9 56 4 24 "c" "j" 267.18 1 1000 100 "1" 1 1 294
"229" 5 35 "?" "P" "f" -551.61 NA 2 24 7 56 "c" "n" 204.01 1 1000 100 "1" 0 1 295
"229" 5 36 "?" "N" "d" 304.67 NA 7 24 4 56 "i" "j" 635.96 1 100 100 "1" 0 1 296
"229" 5 37 "?" "P" "f" 628.42 NA 8 56 3 24 "c" "j" 304.67 1 100 100 "1" 0 1 297
"229" 5 38 "?" "P" "f" 687.41 NA 7 56 4 24 "c" "n" -660.49 0 100 1000 "0" 0 0 298
"229" 5 39 "?" "N" "d" 1091.5 NA 2 24 8 56 "c" "n" -488.2 1 100 1000 "1" 1 1 299
"229" 5 40 "?" "N" "d" 796.57 NA 7 24 4 56 "i" "j" 678.15 1 100 100 "0" 0 0 300
"229" 5 41 "?" "N" "d" 242.88 NA 3 24 9 56 "c" "n" -395.79 1 100 1000 "0" 0 0 301
"229" 5 42 "?" "P" "f" -108.14 NA 8 56 4 24 "c" "n" -591.3 0 100 1000 "1" 0 1 302
"229" 5 43 "?" "N" "d" 715.52 NA 3 24 9 56 "c" "n" 421.21 1 1000 100 "1" 1 1 303
"229" 5 44 "?" "P" "f" -305.48 NA 9 24 4 56 "i" "j" 777.47 0 1000 100 "1" 0 1 304
"229" 5 45 "?" "P" "f" 3.56 NA 9 24 2 56 "i" "n" -172.58 1 1000 1000 "0" 1 0 305
"229" 5 46 "?" "N" "d" 288.18 NA 3 56 7 24 "i" "j" 422.4 0 100 100 "1" 0 1 306
"229" 5 47 "?" "P" "f" -180.57 NA 9 56 4 24 "c" "n" -43.56 0 1000 100 "1" 1 1 307
"229" 5 48 "?" "N" "d" 420.09 NA 9 24 2 56 "i" "j" 262.98 1 100 100 "1" 1 1 308
"229" 5 49 "?" "P" "f" -195.72 NA 8 56 4 24 "c" "n" -92.82 0 1000 100 "1" 0 1 309
"229" 5 50 "?" "N" "d" -531.48 NA 3 24 8 56 "c" "n" 539.98 1 1000 100 "1" 1 1 310
"229" 5 51 "?" "P" "f" -0.64 NA 2 56 7 24 "i" "j" 249.69 1 1000 1000 "1" 0 1 311
"229" 5 52 "?" "N" "d" -687.83 NA 3 24 8 56 "c" "n" -472.8 1 1000 1000 "1" 0 1 312
"229" 5 53 "?" "P" "f" -619.46 NA 7 56 4 24 "c" "n" -291.94 0 1000 1000 "1" 0 1 313
"229" 5 54 "?" "N" "d" 565.13 NA 2 56 8 24 "i" "n" -817.74 1 100 1000 "1" 1 1 314
"229" 5 55 "?" "P" "f" 3.64 NA 3 56 7 24 "i" "j" 1434.66 1 100 1000 "1" 0 1 315
"229" 5 56 "?" "N" "d" 0.51 NA 4 24 7 56 "c" "n" 508.03 1 1000 100 "1" 0 1 316
"229" 5 57 "?" "N" "d" -54.55 NA 9 24 3 56 "i" "j" -7.04 1 1000 100 "0" 0 0 317
"229" 5 58 "?" "P" "f" 1277.63 NA 4 24 7 56 "c" "n" 2958.52 1 100 100 "1" 0 1 318
"229" 5 59 "?" "N" "d" 170.04 NA 3 24 7 56 "c" "n" 1175.07 1 100 100 "1" 0 1 319
"229" 5 60 "?" "P" "f" 149.77 NA 8 56 2 24 "c" "j" 1514.67 1 100 100 "1" 0 1 320
"229" 5 61 "?" "N" "d" -758.19 NA 4 24 9 56 "c" "n" 672.41 1 1000 1000 "1" 0 1 321
"229" 5 62 "?" "N" "d" -810.96 NA 2 24 8 56 "c" "n" 540.85 1 1000 1000 "0" 0 0 322
"229" 5 63 "?" "P" "f" 104.02 NA 4 56 7 24 "i" "j" 645.28 1 1000 1000 "1" 0 1 323
"229" 5 64 "?" "N" "d" -489.74 NA 7 24 3 56 "i" "n" 469.21 0 1000 100 "1" 0 1 324
"229" 5 65 "?" "P" "f" 763.36 NA 8 24 4 56 "i" "j" -20.07 0 100 1000 "1" 1 1 325
"229" 6 1 "?" "P" "f" 2116.66 NA 7 56 3 24 "c" "n" -447.28 0 100 1000 "-1" 0 -1 326
"229" 6 2 "?" "P" "f" 1484.5 NA 4 24 9 56 "c" "j" 322.18 0 100 100 "0" 1 0 327
"229" 6 3 "?" "N" "d" -170.15 NA 3 24 8 56 "c" "n" -405.33 1 1000 1000 "1" 1 1 328
"229" 6 4 "?" "N" "d" -495.65 NA 4 56 7 24 "i" "j" 844.96 0 1000 1000 "0" 0 0 329
"229" 6 5 "?" "P" "f" 536.07 NA 7 56 3 24 "c" "n" 790.02 0 100 1000 "1" 1 1 330
"229" 6 6 "?" "N" "d" 632.22 NA 8 24 4 56 "i" "n" 759.19 0 100 100 "1" 1 1 331
"229" 6 7 "?" "P" "f" 4.21 NA 3 24 8 56 "c" "j" 330.82 0 1000 1000 "1" 1 1 332
"229" 6 8 "?" "N" "d" -397.11 NA 9 24 2 56 "i" "n" -564.83 0 1000 1000 "1" 1 1 333
"229" 6 9 "?" "P" "f" -801.64 NA 3 24 7 56 "c" "j" 57.03 0 1000 100 "1" 1 1 334
"229" 6 10 "?" "P" "f" 1981.43 NA 4 56 7 24 "i" "n" 363.61 0 1000 100 "0" 1 0 335
"229" 6 11 "?" "N" "d" 199.84 NA 9 56 2 24 "c" "j" 321.03 1 1000 1000 "1" 1 1 336
"229" 6 12 "?" "P" "f" 663.82 NA 9 24 3 56 "i" "n" -130.51 1 100 1000 "1" 0 1 337
"229" 6 13 "?" "N" "d" 375.04 NA 4 24 8 56 "c" "j" 673.68 0 100 100 "1" 0 1 338
"229" 6 14 "?" "P" "f" 576.13 NA 8 56 2 24 "c" "n" -294.49 0 100 1000 "1" 1 1 339
"229" 6 15 "?" "N" "d" -711.07 NA 8 24 3 56 "i" "j" 11.5 1 1000 100 "1" 1 1 340
"229" 6 16 "?" "P" "f" 1999.24 NA 7 24 2 56 "i" "n" -503.38 1 100 1000 "1" 0 1 341
"229" 6 17 "?" "N" "d" 2197.82 NA 3 56 7 24 "i" "j" 339.84 0 1000 100 "1" 0 1 342
"229" 6 18 "?" "P" "f" 181.49 NA 9 56 4 24 "c" "n" 455.41 0 1000 100 "1" 1 1 343
"229" 6 19 "?" "P" "f" -136.27 NA 2 56 9 24 "i" "j" -585.06 1 1000 1000 "0" 1 0 344
"229" 6 20 "?" "P" "f" 384.09 NA 8 56 4 24 "c" "j" 237.77 1 100 1000 "0" 0 0 345
"229" 6 21 "?" "N" "d" -249.48 NA 7 24 2 56 "i" "n" -181.2 0 1000 1000 "1" 0 1 346
"229" 6 22 "?" "N" "d" 513.04 NA 7 56 4 24 "c" "n" -311.32 0 100 1000 "0" 1 0 347
"229" 6 23 "?" "P" "f" 307.51 NA 3 24 9 56 "c" "j" 582.21 0 100 100 "1" 1 1 348
"229" 6 24 "?" "N" "d" 584.78 NA 8 24 2 56 "i" "n" -392.07 0 100 1000 "1" 1 1 349
"229" 6 25 "?" "P" "f" 414.52 NA 8 24 4 56 "i" "n" 3.55 1 100 1000 "1" 1 1 350
"229" 6 26 "?" "N" "d" 630.16 NA 3 56 7 24 "i" "j" 812.77 0 100 100 "1" 0 1 351
"229" 6 27 "?" "P" "f" 661.26 NA 8 24 4 56 "i" "n" 686.96 1 100 100 "1" 1 1 352
"229" 6 28 "?" "N" "d" 1010.54 NA 7 56 3 24 "c" "n" 78 0 1000 1000 "1" 0 1 353
"229" 6 29 "?" "P" "f" -152.17 NA 7 56 4 24 "c" "j" 446.34 1 1000 100 "1" 1 1 354
"229" 6 30 "?" "N" "d" 920.56 NA 9 24 2 56 "i" "n" 1140.62 0 100 100 "1" 0 1 355
"229" 6 31 "?" "P" "f" -269.79 NA 8 56 4 24 "c" "n" -527.47 0 1000 1000 "1" 1 1 356
"229" 6 32 "?" "N" "d" 81.84 NA 7 24 2 56 "i" "j" -243.28 1 100 1000 "1" 1 1 357
"229" 6 33 "?" "P" "f" -592.34 NA 8 56 4 24 "c" "j" 1469.14 1 1000 100 "1" 0 1 358
"229" 6 34 "?" "P" "f" -16.39 NA 9 24 2 56 "i" "n" 447.69 1 1000 100 "0" 0 0 359
"229" 6 35 "?" "N" "d" 482.24 NA 3 56 7 24 "i" "j" -423.27 0 100 1000 "1" 0 1 360
"229" 6 36 "?" "N" "d" 586.23 NA 4 56 8 24 "i" "j" 611.62 0 100 100 "0" 1 0 361
"229" 6 37 "?" "P" "f" 457.44 NA 8 56 2 24 "c" "n" 683.86 0 100 100 "1" 1 1 362
"229" 6 38 "?" "N" "d" 878.42 NA 8 24 3 56 "i" "j" -256.73 1 100 1000 "1" 1 1 363
"229" 6 39 "?" "P" "f" -653.06 NA 8 24 4 56 "i" "n" 1677.77 1 1000 1000 "1" 0 1 364
"229" 6 40 "?" "N" "d" 1894.8 NA 3 24 7 56 "c" "n" 855.87 1 100 100 "1" 0 1 365
"229" 6 41 "?" "P" "f" -541.53 NA 4 24 7 56 "c" "n" 642.42 1 1000 100 "1" 0 1 366
"229" 6 42 "?" "N" "d" 723.93 NA 3 24 9 56 "c" "j" 581.93 0 1000 100 "1" 0 1 367
"229" 6 43 "?" "N" "d" -553.81 NA 4 56 7 24 "i" "j" 865.76 0 1000 1000 "0" 1 0 368
"229" 6 44 "?" "P" "f" 596.22 NA 7 56 2 24 "c" "n" 452.77 0 100 100 "1" 1 1 369
"229" 6 45 "?" "N" "d" 381.38 NA 4 24 9 56 "c" "n" 284.21 1 100 1000 "1" 1 1 370
"229" 6 46 "?" "P" "f" -635.16 NA 3 24 7 56 "c" "j" 402.54 0 1000 100 "1" 0 1 371
"229" 6 47 "?" "N" "d" 380.93 NA 4 24 9 56 "c" "j" -447.39 0 100 1000 "1" 1 1 372
"229" 6 48 "?" "N" "d" 1124.19 NA 8 24 3 56 "i" "n" 7.13 0 100 1000 "0" 1 0 373
"229" 6 49 "?" "N" "d" 476.64 NA 8 56 4 24 "c" "n" 303.26 0 100 100 "0" 1 0 374
"229" 6 50 "?" "N" "d" -419.43 NA 9 24 3 56 "i" "n" -11.58 0 1000 100 "0" 1 0 375
"229" 6 51 "?" "N" "d" 618.69 NA 8 56 2 24 "c" "n" 183.12 0 1000 100 "0" 1 0 376
"229" 6 52 "?" "N" "d" 518.36 NA 8 24 4 56 "i" "n" 126.91 0 100 100 "0" 1 0 377
"229" 6 53 "?" "N" "d" -490.33 NA 7 56 3 24 "c" "j" 2987.11 1 1000 1000 "0" 1 0 378
"229" 6 54 "?" "N" "d" 4608.85 NA 4 24 9 56 "c" "n" 1523.87 1 1000 1000 "0" 0 0 379
"229" 6 55 "?" "P" "f" 305.82 NA 9 56 3 24 "c" "j" 1705.72 1 100 100 "1" 0 1 380
"229" 6 56 "?" "N" "d" -665.94 NA 9 24 2 56 "i" "j" 1664.72 1 1000 1000 "1" 0 1 381
"229" 6 57 "?" "P" "f" 167.25 NA 3 24 7 56 "c" "n" 703.59 1 100 1000 "1" 0 1 382
"229" 6 58 "?" "N" "d" -610.75 NA 9 24 4 56 "i" "j" 1698.66 1 1000 100 "1" 0 1 383
"229" 6 59 "?" "P" "f" -645.43 NA 2 24 7 56 "c" "n" 548.82 1 1000 1000 "1" 0 1 384
"229" 6 60 "?" "N" "d" -688.71 NA 4 56 8 24 "i" "n" 1542.36 1 1000 100 "1" 0 1 385
"229" 6 61 "?" "P" "f" 351.77 NA 9 24 3 56 "i" "n" 1589.51 1 100 100 "1" 0 1 386
"229" 6 62 "?" "P" "f" -383.98 NA 8 24 4 56 "i" "n" 552.47 1 1000 100 "0" 0 0 387
"229" 6 63 "?" "N" "d" 178.32 NA 8 24 2 56 "i" "j" 710.42 1 100 100 "1" 0 1 388
"229" 6 64 "?" "P" "f" 1141.44 NA 7 24 4 56 "i" "n" 390.7 1 1000 1000 "1" 0 1 389
"229" 6 65 "?" "N" "d" 193.51 NA 3 24 9 56 "c" "n" 765.5 1 100 1000 "1" 0 1 390
"227" 1 1 "?" "P" "d" 420.79 NA 2 56 8 24 "i" "j" 838.51 1 1000 100 "-1" 0 -1 1
"227" 1 2 "?" "N" "f" 359.2 NA 3 24 9 56 "c" "n" 920.71 1 1000 1000 "1" 0 1 2
"227" 1 3 "?" "P" "d" 639.58 NA 4 24 9 56 "c" "n" 975.7 1 1000 100 "1" 0 1 3
"227" 1 4 "?" "N" "f" 734.01 NA 7 56 2 24 "c" "j" 738.08 1 1000 100 "1" 0 1 4
"227" 1 5 "?" "N" "f" 415.94 NA 3 24 8 56 "c" "n" 623.69 1 1000 1000 "0" 0 0 5
"227" 1 6 "?" "N" "f" 361.35 NA 8 24 4 56 "i" "n" 992.14 0 1000 100 "0" 0 0 6
"227" 1 7 "?" "P" "d" 746.25 NA 2 24 7 56 "c" "n" 959.15 1 100 100 "1" 1 1 7
"227" 1 8 "?" "P" "d" 1274.81 NA 9 24 3 56 "i" "n" 852.29 1 1000 100 "0" 0 0 8
"227" 1 9 "?" "N" "f" 142.49 NA 4 56 7 24 "i" "n" 1101.15 1 1000 1000 "1" 0 1 9
"227" 1 10 "?" "N" "f" 563.63 NA 9 24 2 56 "i" "j" 1284.91 1 1000 1000 "0" 0 0 10
"227" 1 11 "?" "P" "d" 450.76 NA 3 56 9 24 "i" "j" 958 1 1000 1000 "1" 0 1 11
"227" 1 12 "?" "P" "d" 1364.35 NA 4 24 9 56 "c" "n" 959.45 1 100 100 "0" 0 0 12
"227" 1 13 "?" "N" "f" 926.35 NA 8 56 2 24 "c" "j" 887.77 1 1000 1000 "1" 0 1 13
"227" 1 14 "?" "N" "f" 1506.37 NA 8 56 4 24 "c" "j" 591.44 1 100 1000 "0" 0 0 14
"227" 1 15 "?" "N" "f" 429.51 NA 2 56 8 24 "i" "j" 869.33 0 1000 100 "0" 0 0 15
"227" 1 16 "?" "P" "d" 109.71 NA 8 56 4 24 "c" "j" 1080.67 1 1000 100 "1" 1 1 16
"227" 1 17 "?" "P" "d" 2596.72 NA 7 24 2 56 "i" "n" 957.42 1 100 100 "0" 0 0 17
"227" 1 18 "?" "N" "f" 744.74 NA 4 56 7 24 "i" "n" 788.19 1 100 1000 "1" 0 1 18
"227" 1 19 "?" "N" "f" 358.87 NA 2 56 7 24 "i" "n" 1000.06 1 1000 100 "0" 0 0 19
"227" 1 20 "?" "P" "d" 101.39 NA 3 56 7 24 "i" "j" 1184.54 1 1000 100 "1" 0 1 20
"227" 1 21 "?" "P" "d" 822.65 NA 2 24 7 56 "c" "n" 714.98 1 100 1000 "0" 0 0 21
"227" 1 22 "?" "P" "d" 853.84 NA 9 24 4 56 "i" "n" 814.28 1 100 1000 "0" 0 0 22
"227" 1 23 "?" "N" "f" -15.31 NA 9 56 3 24 "c" "j" 852.05 1 1000 1000 "1" 0 1 23
"227" 1 24 "?" "N" "f" 627.38 NA 2 24 9 56 "c" "n" 911.06 1 1000 100 "0" 0 0 24
"227" 1 25 "?" "P" "d" 2268.45 NA 7 24 4 56 "i" "n" 658.7 1 100 100 "1" 0 1 25
"227" 1 26 "?" "P" "d" 1297.82 NA 3 24 8 56 "c" "n" 588.31 1 100 1000 "0" 0 0 26
"227" 1 27 "?" "N" "f" 765.29 NA 4 24 8 56 "c" "n" 701.58 1 100 1000 "1" 0 1 27
"227" 1 28 "?" "N" "f" 1470.86 NA 3 24 7 56 "c" "n" 712.4 1 100 1000 "0" 0 0 28
"227" 1 29 "?" "P" "d" 1178.08 NA 7 24 4 56 "i" "n" 731.97 1 100 100 "1" 0 1 29
"227" 1 30 "?" "P" "d" 1270.17 NA 7 56 2 24 "c" "j" 610.95 1 100 1000 "0" 0 0 30
"227" 1 31 "?" "N" "f" 242.14 NA 3 56 8 24 "i" "n" 2360.74 1 1000 1000 "1" 0 1 31
"227" 1 32 "?" "N" "f" 452.9 NA 4 24 7 56 "c" "n" 655.73 1 1000 1000 "0" 0 0 32
"227" 1 33 "?" "N" "f" 776.79 NA 3 56 8 24 "i" "n" 1170.06 1 1000 100 "0" 0 0 33
"227" 1 34 "?" "P" "d" 706.98 NA 2 56 8 24 "i" "j" 1030.65 1 100 1000 "1" 0 1 34
"227" 1 35 "?" "P" "d" 323.69 NA 7 56 4 24 "c" "j" 548.34 1 1000 100 "0" 0 0 35
"227" 1 36 "?" "N" "f" 1664.16 NA 8 24 2 56 "i" "j" 1151.04 1 100 100 "1" 0 1 36
"227" 1 37 "?" "P" "d" 754.54 NA 9 56 4 24 "c" "j" 600.91 1 100 1000 "1" 0 1 37
"227" 1 38 "?" "P" "d" 1222.94 NA 9 56 3 24 "c" "j" 523.45 1 100 1000 "0" 0 0 38
"227" 1 39 "?" "P" "d" 507.99 NA 2 24 9 56 "c" "n" 796.55 1 1000 100 "0" 0 0 39
"227" 1 40 "?" "P" "d" 997.85 NA 8 24 3 56 "i" "n" 1971.63 1 1000 1000 "0" 0 0 40
"227" 1 41 "?" "N" "f" -47.95 NA 8 56 2 24 "c" "j" 933.58 1 1000 100 "1" 0 1 41
"227" 1 42 "?" "N" "f" 1114.72 NA 9 56 4 24 "c" "j" 701.51 1 100 100 "0" 0 0 42
"227" 1 43 "?" "P" "d" -173.99 NA 3 56 9 24 "i" "j" 2640.74 1 1000 1000 "1" 0 1 43
"227" 1 44 "?" "N" "f" 652.75 NA 7 56 4 24 "c" "j" 780.71 1 100 100 "1" 0 1 44
"227" 1 45 "?" "P" "d" 1212.78 NA 3 24 9 56 "c" "n" 722.52 1 100 100 "1" 0 1 45
"227" 1 46 "?" "N" "f" 1248.53 NA 8 24 2 56 "i" "j" 995.19 1 1000 100 "1" 0 1 46
"227" 1 47 "?" "P" "d" -63.17 NA 7 56 3 24 "c" "j" 1851.56 1 1000 1000 "1" 0 1 47
"227" 1 48 "?" "P" "d" 1057.01 NA 8 24 2 56 "i" "n" 1785.33 1 1000 1000 "0" 0 0 48
"227" 1 49 "?" "N" "f" 1272.74 NA 7 24 4 56 "i" "j" 1108.36 1 100 1000 "1" 0 1 49
"227" 1 50 "?" "N" "f" 1983.52 NA 8 24 3 56 "i" "j" 1062.75 1 100 100 "0" 0 0 50
"227" 1 51 "?" "N" "f" 1403.33 NA 8 24 2 56 "i" "j" 1048.09 1 100 1000 "0" 0 0 51
"227" 1 52 "?" "P" "d" -48.65 NA 4 24 7 56 "c" "n" 1000.41 1 1000 100 "1" 0 1 52
"227" 1 53 "?" "P" "d" 946.41 NA 7 56 2 24 "c" "j" 868.66 1 100 100 "0" 0 0 53
"227" 1 54 "?" "P" "d" -50.39 NA 3 56 9 24 "i" "j" 886.54 1 1000 100 "0" 0 0 54
"227" 1 55 "?" "P" "d" 808.55 NA 2 56 7 24 "i" "j" 1382.07 1 100 100 "0" 0 0 55
"227" 1 56 "?" "N" "f" 561.4 NA 4 24 8 56 "c" "n" 788.96 1 100 100 "1" 0 1 56
"227" 1 57 "?" "N" "f" 687.06 NA 2 56 9 24 "i" "n" 1004.9 1 100 1000 "0" 0 0 57
"227" 1 58 "?" "N" "f" 562.09 NA 9 24 4 56 "i" "n" 2149.43 0 1000 1000 "0" 0 0 58
"227" 1 59 "?" "N" "f" 1190.93 NA 7 56 3 24 "c" "j" 816.83 1 1000 1000 "0" 1 0 59
"227" 1 60 "?" "N" "f" 686.39 NA 4 24 9 56 "c" "n" 1049.94 1 1000 1000 "0" 0 0 60
"227" 1 61 "?" "P" "d" 844.07 NA 9 24 3 56 "i" "n" 1123.89 1 100 1000 "1" 0 1 61
"227" 1 62 "?" "P" "d" 958.93 NA 4 56 8 24 "i" "j" 662.29 1 100 100 "0" 0 0 62
"227" 1 63 "?" "P" "d" 1099.3 NA 8 24 2 56 "i" "n" 702.99 1 100 100 "0" 0 0 63
"227" 1 64 "?" "N" "f" 313.31 NA 9 56 3 24 "c" "j" 667.17 1 100 100 "1" 0 1 64
"227" 1 65 "?" "N" "f" 766.64 NA 7 24 4 56 "i" "n" 815.31 0 100 1000 "0" 0 0 65
"227" 2 1 "?" "P" "d" 662.42 NA 4 56 9 24 "i" "j" 1666.56 1 1000 1000 "-1" 0 -1 66
"227" 2 2 "?" "P" "d" 831.36 NA 2 56 9 24 "i" "j" 600.8 1 100 100 "0" 0 0 67
"227" 2 3 "?" "N" "f" 220.39 NA 9 24 4 56 "i" "j" 972.97 1 1000 100 "1" 0 1 68
"227" 2 4 "?" "N" "f" 1272.97 NA 7 24 2 56 "i" "j" 1311.62 1 100 100 "0" 0 0 69
"227" 2 5 "?" "N" "f" 636.86 NA 3 24 7 56 "c" "n" 837.55 1 100 100 "0" 0 0 70
"227" 2 6 "?" "P" "d" -1.17 NA 7 56 2 24 "c" "j" 600.92 1 1000 1000 "1" 0 1 71
"227" 2 7 "?" "P" "d" 755.5 NA 3 56 8 24 "i" "j" 704.02 1 100 100 "0" 0 0 72
"227" 2 8 "?" "P" "d" 674.75 NA 4 56 8 24 "i" "j" 570.38 1 100 1000 "0" 0 0 73
"227" 2 9 "?" "N" "f" 483.55 NA 3 56 9 24 "i" "n" 1176.23 1 100 1000 "1" 0 1 74
"227" 2 10 "?" "N" "f" 566.79 NA 7 56 4 24 "c" "j" 1130.15 1 100 1000 "0" 0 0 75
"227" 2 11 "?" "N" "f" 458.48 NA 2 56 9 24 "i" "n" 1190.59 1 100 1000 "0" 0 0 76
"227" 2 12 "?" "N" "f" -472.69 NA 3 56 8 24 "i" "n" 1319.16 1 1000 100 "0" 0 0 77
"227" 2 13 "?" "P" "d" 333.73 NA 7 24 2 56 "i" "n" 1559.09 1 1000 1000 "1" 0 1 78
"227" 2 14 "?" "P" "d" 295.18 NA 8 24 4 56 "i" "n" 620.16 1 1000 1000 "0" 0 0 79
"227" 2 15 "?" "P" "d" 1111.49 NA 3 56 8 24 "i" "j" 585.64 1 1000 100 "0" 0 0 80
"227" 2 16 "?" "P" "d" 1932.91 NA 7 56 4 24 "c" "j" 588.79 1 100 1000 "0" 0 0 81
"227" 2 17 "?" "N" "f" -428.34 NA 9 24 2 56 "i" "n" 2510.94 0 1000 100 "1" 0 1 82
"227" 2 18 "?" "N" "f" 487 NA 4 24 8 56 "c" "n" 690.57 1 1000 1000 "0" 1 0 83
"227" 2 19 "?" "N" "f" 158.67 NA 3 24 7 56 "c" "n" 652.12 1 1000 100 "0" 0 0 84
"227" 2 20 "?" "N" "f" 334.19 NA 8 56 4 24 "c" "j" 576.26 1 1000 100 "0" 0 0 85
"227" 2 21 "?" "N" "f" 802.57 NA 7 24 2 56 "i" "j" 733.96 1 1000 1000 "0" 0 0 86
"227" 2 22 "?" "P" "d" -135.82 NA 4 24 8 56 "c" "n" 1070.85 1 1000 100 "1" 0 1 87
"227" 2 23 "?" "P" "d" 200.76 NA 9 24 3 56 "i" "n" 542.04 1 1000 100 "0" 0 0 88
"227" 2 24 "?" "P" "d" 1028.78 NA 8 24 4 56 "i" "n" 563.41 1 100 100 "0" 0 0 89
"227" 2 25 "?" "N" "f" -499.1 NA 8 56 2 24 "c" "j" 583.07 1 1000 1000 "1" 0 1 90
"227" 2 26 "?" "P" "d" 912.2 NA 3 56 9 24 "i" "j" 2600.69 1 100 100 "1" 0 1 91
"227" 2 27 "?" "P" "d" 933.25 NA 4 24 7 56 "c" "n" 546.11 1 100 100 "0" 0 0 92
"227" 2 28 "?" "N" "f" 761.39 NA 2 56 9 24 "i" "j" 688.29 0 100 100 "1" 0 1 93
"227" 2 29 "?" "N" "f" 821.15 NA 4 24 8 56 "c" "n" 556.02 1 100 1000 "0" 1 0 94
"227" 2 30 "?" "N" "f" 710.1 NA 2 24 7 56 "c" "n" 562.21 1 100 1000 "0" 0 0 95
"227" 2 31 "?" "P" "d" 535.77 NA 8 24 3 56 "i" "n" 1973.41 1 100 100 "1" 0 1 96
"227" 2 32 "?" "P" "d" -114.51 NA 7 56 2 24 "c" "j" 676 1 1000 100 "0" 0 0 97
"227" 2 33 "?" "P" "d" 453.79 NA 9 56 3 24 "c" "j" 454.51 1 1000 1000 "0" 0 0 98
"227" 2 34 "?" "P" "d" 629.21 NA 2 24 9 56 "c" "n" 598.07 1 1000 100 "0" 0 0 99
"227" 2 35 "?" "N" "f" -149.24 NA 4 56 9 24 "i" "j" 763.58 0 1000 1000 "1" 0 1 100
"227" 2 36 "?" "N" "f" -94.14 NA 8 24 2 56 "i" "j" 1178.71 1 1000 1000 "0" 1 0 101
"227" 2 37 "?" "N" "f" 343.94 NA 9 24 4 56 "i" "j" 821.36 1 1000 1000 "0" 0 0 102
"227" 2 38 "?" "N" "f" 528.02 NA 7 56 3 24 "c" "j" 541.78 1 100 100 "0" 0 0 103
"227" 2 39 "?" "N" "f" 465.55 NA 4 56 8 24 "i" "n" 1647.22 1 100 1000 "0" 0 0 104
"227" 2 40 "?" "N" "f" 683.85 NA 3 56 9 24 "i" "n" 1141.85 1 100 1000 "0" 0 0 105
"227" 2 41 "?" "N" "f" 644.01 NA 7 56 4 24 "c" "j" 2081.83 1 1000 100 "0" 0 0 106
"227" 2 42 "?" "N" "f" 41.72 NA 8 56 3 24 "c" "j" 1562.85 1 1000 100 "0" 0 0 107
"227" 2 43 "?" "P" "d" 581.05 NA 2 24 7 56 "c" "n" 657.3 1 100 100 "1" 0 1 108
"227" 2 44 "?" "P" "d" 452.81 NA 7 24 3 56 "i" "n" 689.8 1 100 100 "0" 0 0 109
"227" 2 45 "?" "P" "d" 407.42 NA 4 24 7 56 "c" "n" 502.98 1 100 1000 "0" 0 0 110
"227" 2 46 "?" "P" "d" 1900.13 NA 3 56 8 24 "i" "j" 848.1 1 100 1000 "0" 0 0 111
"227" 2 47 "?" "N" "f" -408.89 NA 7 56 2 24 "c" "j" 594.48 1 1000 1000 "1" 0 1 112
"227" 2 48 "?" "N" "f" -6.56 NA 3 56 8 24 "i" "n" 884.39 1 1000 100 "0" 0 0 113
"227" 2 49 "?" "N" "f" 631.5 NA 8 56 2 24 "c" "j" 544.54 1 100 1000 "0" 0 0 114
"227" 2 50 "?" "N" "f" 782.96 NA 8 56 3 24 "c" "j" 511.04 1 100 1000 "0" 0 0 115
"227" 2 51 "?" "P" "d" 275.75 NA 4 24 9 56 "c" "n" 832.33 1 1000 100 "1" 0 1 116
"227" 2 52 "?" "P" "d" 550.08 NA 2 24 9 56 "c" "n" 455.77 1 1000 1000 "0" 0 0 117
"227" 2 53 "?" "N" "f" 778.14 NA 8 56 4 24 "c" "j" 529.29 1 100 100 "1" 0 1 118
"227" 2 54 "?" "N" "f" 604.53 NA 7 24 3 56 "i" "j" 770.42 1 100 1000 "0" 0 0 119
"227" 2 55 "?" "N" "f" 504.83 NA 8 24 2 56 "i" "j" 1457.08 1 100 1000 "0" 0 0 120
"227" 2 56 "?" "N" "f" -158.58 NA 4 24 8 56 "c" "n" 1553.02 1 1000 1000 "0" 0 0 121
"227" 2 57 "?" "P" "d" 560.28 NA 9 56 2 24 "c" "j" 551.66 1 100 100 "1" 0 1 122
"227" 2 58 "?" "P" "d" 659.45 NA 8 24 4 56 "i" "n" 696.58 1 1000 1000 "0" 0 0 123
"227" 2 59 "?" "P" "d" 931.3 NA 3 24 7 56 "c" "n" 588.9 1 100 100 "0" 0 0 124
"227" 2 60 "?" "N" "f" -394.69 NA 9 24 2 56 "i" "j" 1317.62 1 1000 1000 "1" 0 1 125
"227" 2 61 "?" "N" "f" 303.36 NA 3 56 9 24 "i" "n" 837.8 1 1000 100 "0" 0 0 126
"227" 2 62 "?" "N" "f" 663.39 NA 8 56 4 24 "c" "j" 1061.29 1 100 100 "0" 0 0 127
"227" 2 63 "?" "N" "f" 387.31 NA 7 24 2 56 "i" "j" 984.59 1 1000 100 "0" 0 0 128
"227" 2 64 "?" "N" "f" 281.59 NA 4 24 7 56 "c" "n" 590 1 1000 1000 "0" 0 0 129
"227" 2 65 "?" "P" "d" 991.81 NA 3 24 7 56 "c" "n" 548.41 1 100 1000 "1" 0 1 130
"227" 3 1 "?" "P" "d" 988.68 NA 7 24 3 56 "i" "n" 760.2 1 1000 100 "-1" 0 -1 131
"227" 3 2 "?" "P" "d" 680.1 NA 4 56 9 24 "i" "j" 486.53 1 100 1000 "0" 0 0 132
"227" 3 3 "?" "N" "f" 460.13 NA 3 24 9 56 "c" "n" 1271.8 1 100 100 "1" 0 1 133
"227" 3 4 "?" "N" "f" 449.8 NA 9 56 4 24 "c" "j" 568.8 1 100 100 "0" 0 0 134
"227" 3 5 "?" "N" "f" 425.21 NA 3 24 8 56 "c" "n" 538.79 1 100 100 "0" 0 0 135
"227" 3 6 "?" "N" "f" 438.75 NA 4 56 8 24 "i" "n" 940.63 1 1000 100 "0" 0 0 136
"227" 3 7 "?" "P" "d" -56.07 NA 3 56 9 24 "i" "j" 992.7 1 1000 100 "1" 0 1 137
"227" 3 8 "?" "P" "d" 476.25 NA 2 56 7 24 "i" "j" 629.5 1 1000 100 "0" 0 0 138
"227" 3 9 "?" "P" "d" 109.28 NA 3 56 8 24 "i" "j" 493.52 1 1000 1000 "0" 0 0 139
"227" 3 10 "?" "P" "d" 838.91 NA 9 24 4 56 "i" "n" 691.73 1 100 100 "0" 0 0 140
"227" 3 11 "?" "N" "f" 172.81 NA 3 56 9 24 "i" "n" 5936.36 1 1000 100 "1" 0 1 141
"227" 3 12 "?" "N" "f" 684.35 NA 8 56 4 24 "c" "j" 862.2 1 100 1000 "0" 0 0 142
"227" 3 13 "?" "P" "d" 489.56 NA 8 56 2 24 "c" "j" 749.9 1 1000 1000 "1" 0 1 143
"227" 3 14 "?" "N" "f" 833.28 NA 4 24 9 56 "c" "n" 713.89 1 100 1000 "1" 0 1 144
"227" 3 15 "?" "P" "d" 571.48 NA 9 56 2 24 "c" "j" 669.98 1 100 100 "1" 0 1 145
"227" 3 16 "?" "N" "f" -71.18 NA 3 56 7 24 "i" "n" 2439.83 1 1000 1000 "1" 0 1 146
"227" 3 17 "?" "P" "d" 1417.57 NA 7 56 2 24 "c" "j" 839.32 1 100 100 "1" 0 1 147
"227" 3 18 "?" "N" "f" -12.33 NA 7 56 3 24 "c" "j" 1138.33 1 1000 100 "1" 0 1 148
"227" 3 19 "?" "P" "d" 978.2 NA 2 56 7 24 "i" "j" 1002.63 1 100 100 "1" 0 1 149
"227" 3 20 "?" "N" "f" -94.78 NA 4 24 9 56 "c" "n" 853.21 1 1000 100 "1" 0 1 150
"227" 3 21 "?" "P" "d" 143.54 NA 3 24 8 56 "c" "n" 641.24 1 1000 1000 "1" 0 1 151
"227" 3 22 "?" "N" "f" -100.48 NA 7 56 4 24 "c" "j" 734.76 1 1000 100 "1" 0 1 152
"227" 3 23 "?" "N" "f" 863.19 NA 9 24 2 56 "i" "j" 835.81 1 100 100 "0" 0 0 153
"227" 3 24 "?" "N" "f" -184.8 NA 8 56 4 24 "c" "j" 458.78 1 1000 1000 "0" 0 0 154
"227" 3 25 "?" "P" "d" 104.14 NA 2 24 9 56 "c" "n" 635.28 1 1000 1000 "1" 0 1 155
"227" 3 26 "?" "P" "d" 762.29 NA 4 24 8 56 "c" "n" 552.7 1 100 1000 "0" 0 0 156
"227" 3 27 "?" "N" "f" -38.04 NA 9 56 2 24 "c" "j" 560.71 1 1000 1000 "1" 0 1 157
"227" 3 28 "?" "N" "f" 579.61 NA 4 56 9 24 "i" "j" 632.4 0 100 1000 "0" 0 0 158
"227" 3 29 "?" "N" "f" 628.43 NA 3 24 8 56 "c" "n" 1328.27 1 1000 1000 "0" 1 0 159
"227" 3 30 "?" "P" "d" -142.05 NA 2 24 7 56 "c" "n" 761.35 1 1000 100 "1" 0 1 160
"227" 3 31 "?" "N" "f" 568.14 NA 3 56 9 24 "i" "n" 710.62 1 1000 1000 "1" 0 1 161
"227" 3 32 "?" "P" "d" -86.54 NA 4 24 9 56 "c" "n" 973.59 1 1000 100 "1" 0 1 162
"227" 3 33 "?" "N" "f" 981.47 NA 2 56 9 24 "i" "n" 1330.49 1 100 1000 "1" 0 1 163
"227" 3 34 "?" "P" "d" 1099.78 NA 8 24 4 56 "i" "n" 759.37 1 100 1000 "1" 0 1 164
"227" 3 35 "?" "N" "f" 307.1 NA 9 24 2 56 "i" "j" 581.51 1 1000 1000 "1" 0 1 165
"227" 3 36 "?" "P" "d" 741.62 NA 4 24 9 56 "c" "n" 480.87 1 100 1000 "1" 0 1 166
"227" 3 37 "?" "N" "f" 966.34 NA 2 56 9 24 "i" "j" 703.01 0 100 100 "1" 0 1 167
"227" 3 38 "?" "P" "d" 718 NA 4 56 8 24 "i" "j" 1076.71 1 1000 100 "1" 1 1 168
"227" 3 39 "?" "N" "f" 870.88 NA 7 24 2 56 "i" "j" 521.93 1 100 1000 "1" 0 1 169
"227" 3 40 "?" "P" "d" 473.21 NA 3 56 7 24 "i" "j" 468.79 1 100 1000 "1" 0 1 170
"227" 3 41 "?" "N" "f" 132 NA 8 56 2 24 "c" "j" 792.09 1 1000 1000 "1" 0 1 171
"227" 3 42 "?" "N" "f" 2591.44 NA 8 56 4 24 "c" "j" 422.6 1 100 1000 "0" 0 0 172
"227" 3 43 "?" "N" "f" 732.06 NA 3 56 8 24 "i" "n" 1264.98 1 1000 100 "0" 0 0 173
"227" 3 44 "?" "N" "f" 1551.29 NA 2 24 8 56 "c" "n" 500.89 1 100 1000 "0" 0 0 174
"227" 3 45 "?" "P" "d" 469.55 NA 3 56 7 24 "i" "j" 1050.11 1 100 100 "1" 0 1 175
"227" 3 46 "?" "P" "d" 303.64 NA 7 24 4 56 "i" "j" 1218.7 0 1000 1000 "0" 0 0 176
"227" 3 47 "?" "P" "d" 164.99 NA 2 56 7 24 "i" "j" 612.39 1 1000 1000 "0" 1 0 177
"227" 3 48 "?" "N" "f" 717.07 NA 9 56 4 24 "c" "j" 579.16 1 100 1000 "1" 0 1 178
"227" 3 49 "?" "P" "d" -173.94 NA 8 56 3 24 "c" "j" 1415.64 1 1000 100 "1" 0 1 179
"227" 3 50 "?" "N" "f" 504.59 NA 9 24 2 56 "i" "j" 961.56 1 100 1000 "1" 0 1 180
"227" 3 51 "?" "P" "d" -85.47 NA 9 24 3 56 "i" "n" 1087.46 1 1000 100 "1" 0 1 181
"227" 3 52 "?" "P" "d" -70.88 NA 7 56 2 24 "c" "j" 640.7 1 1000 100 "0" 0 0 182
"227" 3 53 "?" "P" "d" 666.85 NA 7 56 4 24 "c" "j" 456.01 1 100 1000 "0" 0 0 183
"227" 3 54 "?" "N" "f" 428.69 NA 2 56 8 24 "i" "n" 1025.16 1 100 1000 "1" 0 1 184
"227" 3 55 "?" "P" "d" -32.44 NA 4 56 9 24 "i" "j" 1341.87 1 1000 1000 "1" 0 1 185
"227" 3 56 "?" "P" "d" -122.74 NA 3 24 7 56 "c" "n" 814.15 1 1000 100 "0" 0 0 186
"227" 3 57 "?" "N" "f" 583.07 NA 4 56 8 24 "i" "j" 1513.79 0 100 100 "1" 0 1 187
"227" 3 58 "?" "N" "f" 243.96 NA 3 24 8 56 "c" "n" 494.63 1 1000 1000 "0" 1 0 188
"227" 3 59 "?" "N" "f" 1976.33 NA 7 24 2 56 "i" "j" 1212.69 1 100 100 "0" 0 0 189
"227" 3 60 "?" "N" "f" 186.99 NA 9 24 3 56 "i" "j" 702.8 1 1000 100 "0" 0 0 190
"227" 3 61 "?" "N" "f" 424.95 NA 4 56 7 24 "i" "j" 537.51 0 1000 1000 "0" 0 0 191
"227" 3 62 "?" "P" "d" 551.23 NA 9 56 2 24 "c" "j" 1132.54 1 100 100 "1" 1 1 192
"227" 3 63 "?" "P" "d" 562.38 NA 4 24 8 56 "c" "n" 721.8 1 100 100 "0" 0 0 193
"227" 3 64 "?" "P" "d" 912.47 NA 3 24 9 56 "c" "n" 801.12 1 100 100 "0" 0 0 194
"227" 3 65 "?" "P" "d" 564.17 NA 7 24 4 56 "i" "n" 712.5 1 100 100 "0" 0 0 195
"227" 4 1 "?" "P" "d" 1177.07 NA 3 56 9 24 "i" "j" 1023.46 1 1000 100 "-1" 0 -1 196
"227" 4 2 "?" "P" "d" 1914.44 NA 2 56 9 24 "i" "j" 508.49 1 100 1000 "0" 0 0 197
"227" 4 3 "?" "N" "f" 476.29 NA 8 24 3 56 "i" "j" 775.08 1 100 1000 "1" 0 1 198
"227" 4 4 "?" "N" "f" 443.07 NA 2 56 8 24 "i" "n" 730.44 1 100 100 "0" 0 0 199
"227" 4 5 "?" "N" "f" -2.38 NA 7 56 4 24 "c" "j" 453.52 1 1000 1000 "0" 0 0 200
"227" 4 6 "?" "P" "d" 404.56 NA 2 56 8 24 "i" "j" 1131.11 1 100 100 "1" 0 1 201
"227" 4 7 "?" "P" "d" 437.03 NA 4 56 7 24 "i" "j" 442.82 1 100 1000 "0" 0 0 202
"227" 4 8 "?" "P" "d" 477.58 NA 7 24 3 56 "i" "j" 607.51 0 100 1000 "0" 0 0 203
"227" 4 9 "?" "P" "d" 441.06 NA 4 24 8 56 "c" "n" 470.08 1 1000 100 "0" 1 0 204
"227" 4 10 "?" "P" "d" 268.08 NA 9 56 2 24 "c" "j" 452.56 1 1000 1000 "0" 0 0 205
"227" 4 11 "?" "N" "f" 290.14 NA 3 56 8 24 "i" "n" 716.25 1 100 1000 "1" 0 1 206
"227" 4 12 "?" "N" "f" 325.75 NA 8 56 4 24 "c" "j" 2947.75 1 1000 100 "0" 0 0 207
"227" 4 13 "?" "N" "f" 591.38 NA 2 24 9 56 "c" "n" 718.78 1 100 100 "0" 0 0 208
"227" 4 14 "?" "P" "d" 6.04 NA 3 24 9 56 "c" "n" 1246.05 1 1000 1000 "1" 0 1 209
"227" 4 15 "?" "P" "d" -40.14 NA 4 24 9 56 "c" "n" 625.54 1 1000 1000 "0" 0 0 210
"227" 4 16 "?" "N" "f" 375.45 NA 3 24 7 56 "c" "n" 1191.17 1 100 1000 "1" 0 1 211
"227" 4 17 "?" "N" "f" 338.81 NA 9 24 2 56 "i" "j" 996.95 1 1000 1000 "0" 0 0 212
"227" 4 18 "?" "N" "f" 276.79 NA 3 56 9 24 "i" "n" 720.37 1 1000 1000 "0" 0 0 213
"227" 4 19 "?" "N" "f" 1056.13 NA 9 56 2 24 "c" "j" 602.03 1 100 1000 "0" 0 0 214
"227" 4 20 "?" "P" "d" 401.95 NA 3 24 8 56 "c" "n" 531.8 1 1000 100 "1" 0 1 215
"227" 4 21 "?" "P" "d" 2193.48 NA 7 56 4 24 "c" "j" 561.06 1 100 100 "0" 0 0 216
"227" 4 22 "?" "N" "f" 387.97 NA 2 24 8 56 "c" "n" 1389.73 1 1000 1000 "1" 0 1 217
"227" 4 23 "?" "N" "f" 336.89 NA 4 56 7 24 "i" "j" 691.05 0 1000 100 "0" 0 0 218
"227" 4 24 "?" "N" "f" 868.73 NA 3 56 9 24 "i" "n" 1241.33 1 1000 100 "0" 1 0 219
"227" 4 25 "?" "N" "f" 1779.8 NA 7 56 2 24 "c" "j" 529.66 1 100 1000 "0" 0 0 220
"227" 4 26 "?" "N" "f" 919.78 NA 8 24 4 56 "i" "j" 825.8 1 100 100 "0" 0 0 221
"227" 4 27 "?" "N" "f" 1106.35 NA 7 24 3 56 "i" "j" 625.57 1 100 1000 "0" 0 0 222
"227" 4 28 "?" "P" "d" -245.97 NA 2 24 7 56 "c" "n" 656.21 1 1000 1000 "1" 0 1 223
"227" 4 29 "?" "P" "d" -23.38 NA 4 24 8 56 "c" "n" 519.16 1 1000 100 "0" 0 0 224
"227" 4 30 "?" "P" "d" 1899.37 NA 3 24 8 56 "c" "n" 444.17 1 100 100 "0" 0 0 225
"227" 4 31 "?" "N" "f" 308.99 NA 8 24 4 56 "i" "j" 763.41 1 1000 1000 "1" 0 1 226
"227" 4 32 "?" "P" "d" -27.25 NA 8 56 2 24 "c" "j" 671.56 1 1000 1000 "1" 0 1 227
"227" 4 33 "?" "N" "f" 676.18 NA 9 56 4 24 "c" "j" 628.23 1 100 1000 "1" 0 1 228
"227" 4 34 "?" "P" "d" -74.07 NA 2 56 7 24 "i" "j" 647.93 1 1000 1000 "1" 0 1 229
"227" 4 35 "?" "N" "f" 357.83 NA 9 56 3 24 "c" "j" 583.44 1 1000 100 "1" 0 1 230
"227" 4 36 "?" "P" "d" 157.03 NA 2 56 7 24 "i" "j" 458.22 1 1000 1000 "1" 0 1 231
"227" 4 37 "?" "N" "f" 317.67 NA 8 56 3 24 "c" "j" 598.09 1 1000 1000 "1" 0 1 232
"227" 4 38 "?" "N" "f" 347.11 NA 4 56 9 24 "i" "j" 1038.48 0 1000 100 "0" 0 0 233
"227" 4 39 "?" "N" "f" 653.95 NA 7 24 2 56 "i" "j" 623.02 1 100 100 "0" 1 0 234
"227" 4 40 "?" "N" "f" 473.81 NA 4 24 8 56 "c" "n" 716.84 1 100 1000 "0" 0 0 235
"227" 4 41 "?" "N" "f" 608.93 NA 2 56 9 24 "i" "n" 819.65 1 100 100 "0" 0 0 236
"227" 4 42 "?" "P" "d" 414.27 NA 7 24 3 56 "i" "n" 1399.07 1 100 1000 "1" 0 1 237
"227" 4 43 "?" "P" "d" 290.34 NA 4 24 8 56 "c" "n" 469.98 1 1000 100 "0" 0 0 238
"227" 4 44 "?" "P" "d" 2249.12 NA 7 24 2 56 "i" "j" 476.29 0 100 100 "0" 0 0 239
"227" 4 45 "?" "N" "f" 691.95 NA 4 24 9 56 "c" "n" 786.07 1 100 100 "1" 1 1 240
"227" 4 46 "?" "N" "f" 492.81 NA 7 56 2 24 "c" "j" 561.6 1 100 1000 "0" 0 0 241
"227" 4 47 "?" "N" "f" 479.52 NA 7 56 3 24 "c" "j" 745.17 1 100 100 "0" 0 0 242
"227" 4 48 "?" "P" "d" -264.99 NA 4 56 7 24 "i" "j" 1617.09 1 1000 100 "1" 0 1 243
"227" 4 49 "?" "P" "d" 416.39 NA 2 24 7 56 "c" "n" 612.68 1 100 1000 "0" 0 0 244
"227" 4 50 "?" "P" "d" 457.6 NA 9 24 4 56 "i" "n" 560.22 1 1000 100 "0" 0 0 245
"227" 4 51 "?" "N" "f" 635.52 NA 2 24 9 56 "c" "n" 599.15 1 100 1000 "1" 0 1 246
"227" 4 52 "?" "N" "f" 348.18 NA 9 56 3 24 "c" "j" 544.76 1 1000 100 "0" 0 0 247
"227" 4 53 "?" "P" "d" -130.56 NA 8 24 4 56 "i" "n" 1030.13 1 1000 1000 "1" 0 1 248
"227" 4 54 "?" "P" "d" 142.54 NA 9 24 2 56 "i" "n" 910.37 1 1000 1000 "0" 0 0 249
"227" 4 55 "?" "N" "f" -199.4 NA 7 56 3 24 "c" "j" 511.9 1 1000 100 "1" 0 1 250
"227" 4 56 "?" "N" "f" 1222.79 NA 2 56 9 24 "i" "j" 513.07 0 100 100 "0" 0 0 251
"227" 4 57 "?" "N" "f" 615.89 NA 7 56 3 24 "c" "j" 624.71 1 100 100 "0" 1 0 252
"227" 4 58 "?" "N" "f" 1522.79 NA 9 24 2 56 "i" "n" 805.26 0 100 100 "0" 0 0 253
"227" 4 59 "?" "P" "d" 303.05 NA 7 24 4 56 "i" "n" 701.04 1 1000 1000 "1" 1 1 254
"227" 4 60 "?" "P" "d" 1667.74 NA 8 56 3 24 "c" "j" 500.47 1 100 100 "0" 0 0 255
"227" 4 61 "?" "N" "f" 12.18 NA 7 24 2 56 "i" "j" 1668.36 1 1000 100 "1" 0 1 256
"227" 4 62 "?" "P" "d" 800.2 NA 3 24 7 56 "c" "n" 726.01 1 100 100 "1" 0 1 257
"227" 4 63 "?" "N" "f" 387.73 NA 2 56 8 24 "i" "n" 1298.49 1 100 1000 "1" 0 1 258
"227" 4 64 "?" "P" "d" -105 NA 3 56 8 24 "i" "j" 1833.19 1 1000 100 "1" 0 1 259
"227" 4 65 "?" "N" "f" 167.44 NA 9 24 2 56 "i" "j" 727.69 1 1000 100 "1" 0 1 260
"227" 5 1 "?" "P" "d" 421.49 NA 8 56 3 24 "c" "j" 556.7 1 1000 1000 "-1" 0 -1 261
"227" 5 2 "?" "P" "d" 35.25 NA 8 56 4 24 "c" "j" 498.6 1 1000 100 "0" 0 0 262
"227" 5 3 "?" "N" "f" -565.21 NA 3 56 8 24 "i" "j" 990.44 0 1000 100 "1" 0 1 263
"227" 5 4 "?" "N" "f" -157.91 NA 8 56 2 24 "c" "j" 575.04 1 1000 1000 "0" 1 0 264
"227" 5 5 "?" "N" "f" 441.88 NA 3 24 9 56 "c" "n" 640.13 1 1000 100 "0" 0 0 265
"227" 5 6 "?" "P" "d" -180.34 NA 9 56 2 24 "c" "j" 598.44 1 1000 1000 "1" 0 1 266
"227" 5 7 "?" "N" "f" 324.02 NA 3 56 9 24 "i" "n" 842.48 1 1000 100 "1" 0 1 267
"227" 5 8 "?" "N" "f" 1230.52 NA 4 56 7 24 "i" "n" 722.47 1 100 100 "0" 0 0 268
"227" 5 9 "?" "P" "d" 587.32 NA 8 24 3 56 "i" "n" 1084.64 1 100 100 "1" 0 1 269
"227" 5 10 "?" "P" "d" -113.38 NA 4 24 8 56 "c" "n" 811.41 1 1000 1000 "0" 0 0 270
"227" 5 11 "?" "N" "f" 354.19 NA 2 24 7 56 "c" "n" 624.29 1 1000 100 "1" 0 1 271
"227" 5 12 "?" "P" "d" 215.62 NA 7 56 3 24 "c" "j" 951.58 1 1000 100 "1" 0 1 272
"227" 5 13 "?" "P" "d" 885.12 NA 2 24 7 56 "c" "n" 599.56 1 100 100 "0" 0 0 273
"227" 5 14 "?" "N" "f" 596.34 NA 8 56 3 24 "c" "j" 554.31 1 100 100 "1" 0 1 274
"227" 5 15 "?" "N" "f" 78.26 NA 9 24 4 56 "i" "j" 731.83 1 1000 1000 "0" 0 0 275
"227" 5 16 "?" "P" "d" 88.71 NA 2 56 7 24 "i" "j" 761.23 1 1000 100 "1" 0 1 276
"227" 5 17 "?" "P" "d" 850.02 NA 4 24 9 56 "c" "n" 568.77 1 100 100 "0" 0 0 277
"227" 5 18 "?" "N" "f" -83.56 NA 3 56 9 24 "i" "n" 728.97 1 1000 1000 "1" 0 1 278
"227" 5 19 "?" "P" "d" 355 NA 7 24 4 56 "i" "n" 602.48 1 1000 100 "1" 0 1 279
"227" 5 20 "?" "P" "d" 402.59 NA 7 56 3 24 "c" "j" 577.51 1 1000 100 "0" 0 0 280
"227" 5 21 "?" "N" "f" 524.1 NA 2 24 8 56 "c" "n" 739.67 1 100 100 "1" 0 1 281
"227" 5 22 "?" "N" "f" 68.57 NA 9 56 3 24 "c" "j" 588.47 1 1000 1000 "0" 0 0 282
"227" 5 23 "?" "N" "f" 889.33 NA 7 24 2 56 "i" "j" 669.2 1 100 1000 "0" 0 0 283
"227" 5 24 "?" "N" "f" -161.89 NA 8 24 3 56 "i" "j" 628.6 1 1000 100 "0" 0 0 284
"227" 5 25 "?" "N" "f" 1672.72 NA 2 24 7 56 "c" "n" 602.06 1 100 100 "0" 0 0 285
"227" 5 26 "?" "P" "d" 515.72 NA 8 24 3 56 "i" "j" 679.48 0 100 1000 "1" 0 1 286
"227" 5 27 "?" "P" "d" 851.39 NA 4 56 9 24 "i" "j" 609.22 1 100 1000 "0" 1 0 287
"227" 5 28 "?" "P" "d" 579.29 NA 8 56 2 24 "c" "j" 486.19 1 100 100 "0" 0 0 288
"227" 5 29 "?" "P" "d" 661.54 NA 3 24 9 56 "c" "n" 551.91 1 100 1000 "0" 0 0 289
"227" 5 30 "?" "N" "f" -128.32 NA 7 56 4 24 "c" "j" 526.29 1 1000 1000 "1" 0 1 290
"227" 5 31 "?" "N" "f" 1299.08 NA 7 24 2 56 "i" "j" 431.82 1 100 100 "0" 0 0 291
"227" 5 32 "?" "P" "d" 1136.13 NA 3 24 8 56 "c" "n" 621.58 1 100 1000 "1" 0 1 292
"227" 5 33 "?" "N" "f" 325.09 NA 7 56 4 24 "c" "j" 403.82 1 1000 100 "1" 0 1 293
"227" 5 34 "?" "N" "f" 865.26 NA 3 24 7 56 "c" "n" 566.94 1 1000 1000 "0" 0 0 294
"227" 5 35 "?" "N" "f" 811.1 NA 2 56 8 24 "i" "n" 1226.29 1 100 1000 "0" 0 0 295
"227" 5 36 "?" "P" "d" 769.71 NA 8 24 4 56 "i" "n" 823.92 1 100 1000 "1" 0 1 296
"227" 5 37 "?" "P" "d" 305.3 NA 9 24 2 56 "i" "n" 1143.23 1 1000 100 "0" 0 0 297
"227" 5 38 "?" "P" "d" -53.77 NA 3 56 9 24 "i" "j" 1445.76 1 1000 100 "0" 0 0 298
"227" 5 39 "?" "P" "d" 737.82 NA 4 56 8 24 "i" "j" 579.56 1 100 100 "0" 0 0 299
"227" 5 40 "?" "N" "f" 773.22 NA 2 24 7 56 "c" "n" 805.42 1 100 1000 "1" 0 1 300
"227" 5 41 "?" "N" "f" 438.26 NA 7 24 4 56 "i" "j" 1164.25 1 1000 1000 "0" 0 0 301
"227" 5 42 "?" "P" "d" 526.61 NA 7 56 3 24 "c" "j" 888.04 1 100 1000 "1" 0 1 302
"227" 5 43 "?" "N" "f" 393.86 NA 8 24 4 56 "i" "j" 653.09 1 100 100 "1" 0 1 303
"227" 5 44 "?" "P" "d" 561.45 NA 3 24 8 56 "c" "n" 642.12 1 100 1000 "1" 0 1 304
"227" 5 45 "?" "N" "f" -493.61 NA 2 24 9 56 "c" "n" 1083.29 1 1000 1000 "1" 0 1 305
"227" 5 46 "?" "N" "f" 1238.77 NA 7 24 4 56 "i" "j" 622.87 1 100 1000 "0" 0 0 306
"227" 5 47 "?" "P" "d" -135.3 NA 2 24 7 56 "c" "n" 857.38 1 1000 100 "1" 0 1 307
"227" 5 48 "?" "N" "f" 1836.55 NA 3 56 7 24 "i" "n" 937.36 1 100 100 "1" 0 1 308
"227" 5 49 "?" "P" "d" -149.86 NA 7 24 2 56 "i" "n" 1067.55 1 1000 1000 "1" 0 1 309
"227" 5 50 "?" "P" "d" 495.47 NA 7 24 3 56 "i" "n" 653.17 1 1000 1000 "0" 0 0 310
"227" 5 51 "?" "N" "f" 1033.58 NA 2 56 9 24 "i" "n" 826.91 1 100 1000 "1" 0 1 311
"227" 5 52 "?" "N" "f" 961.57 NA 3 56 8 24 "i" "n" 900.06 1 1000 1000 "0" 0 0 312
"227" 5 53 "?" "P" "d" 855.55 NA 2 56 9 24 "i" "n" 1007.67 0 100 100 "1" 0 1 313
"227" 5 54 "?" "P" "d" 1206.84 NA 9 56 3 24 "c" "j" 501.05 1 100 1000 "0" 1 0 314
"227" 5 55 "?" "P" "d" 479.76 NA 2 56 7 24 "i" "j" 485.93 1 1000 1000 "0" 0 0 315
"227" 5 56 "?" "N" "f" 1347.97 NA 3 56 7 24 "i" "j" 600.62 0 100 100 "1" 0 1 316
"227" 5 57 "?" "N" "f" 281.79 NA 8 24 2 56 "i" "j" 534.35 1 1000 100 "0" 1 0 317
"227" 5 58 "?" "N" "f" 169.49 NA 7 24 3 56 "i" "j" 655.91 1 1000 1000 "0" 0 0 318
"227" 5 59 "?" "N" "f" 2645.94 NA 8 56 4 24 "c" "j" 506 1 100 100 "0" 0 0 319
"227" 5 60 "?" "P" "d" 102.09 NA 2 24 9 56 "c" "n" 643.88 1 1000 1000 "1" 0 1 320
"227" 5 61 "?" "P" "d" 682.05 NA 9 56 3 24 "c" "j" 465.17 1 100 1000 "0" 0 0 321
"227" 5 62 "?" "P" "d" 291.04 NA 4 24 9 56 "c" "n" 526.82 1 1000 100 "0" 0 0 322
"227" 5 63 "?" "N" "f" 669.38 NA 8 24 3 56 "i" "j" 722.75 1 100 1000 "1" 0 1 323
"227" 5 64 "?" "N" "f" 1262.23 NA 7 56 4 24 "c" "j" 585.27 1 100 1000 "0" 0 0 324
"227" 5 65 "?" "N" "f" 1043.73 NA 7 56 2 24 "c" "j" 427.65 1 100 100 "0" 0 0 325
"227" 6 1 "?" "P" "d" 3045.54 NA 2 24 9 56 "c" "n" 506.56 1 100 100 "-1" 0 -1 326
"227" 6 2 "?" "N" "f" 0.84 NA 8 56 4 24 "c" "j" 507.93 1 1000 1000 "1" 0 1 327
"227" 6 3 "?" "N" "f" 836.16 NA 3 24 7 56 "c" "n" 577.33 1 100 100 "0" 0 0 328
"227" 6 4 "?" "N" "f" 264.19 NA 2 24 9 56 "c" "n" 488.72 1 1000 100 "0" 0 0 329
"227" 6 5 "?" "P" "d" 551.92 NA 8 56 4 24 "c" "j" 429.77 1 100 1000 "1" 0 1 330
"227" 6 6 "?" "P" "d" 98.06 NA 8 24 3 56 "i" "n" 870.56 1 1000 1000 "0" 0 0 331
"227" 6 7 "?" "N" "f" 166.95 NA 8 24 2 56 "i" "j" 682.63 1 1000 100 "1" 0 1 332
"227" 6 8 "?" "P" "d" 2059.39 NA 7 56 4 24 "c" "j" 841.31 1 100 100 "1" 0 1 333
"227" 6 9 "?" "P" "d" 181.93 NA 2 24 8 56 "c" "n" 545.71 1 1000 100 "0" 0 0 334
"227" 6 10 "?" "P" "d" 311.3 NA 3 56 8 24 "i" "j" 530.24 1 1000 100 "0" 0 0 335
"227" 6 11 "?" "P" "d" 255.27 NA 8 24 4 56 "i" "n" 939.74 1 1000 1000 "0" 0 0 336
"227" 6 12 "?" "N" "f" 304.06 NA 8 56 2 24 "c" "j" 2109.34 1 1000 1000 "1" 0 1 337
"227" 6 13 "?" "N" "f" 306.29 NA 3 56 8 24 "i" "n" 761.04 1 1000 100 "0" 0 0 338
"227" 6 14 "?" "N" "f" 635.94 NA 2 56 8 24 "i" "n" 1072.06 1 100 1000 "0" 0 0 339
"227" 6 15 "?" "P" "d" 1822.68 NA 7 56 4 24 "c" "j" 602.75 1 100 100 "1" 0 1 340
"227" 6 16 "?" "N" "f" 593.78 NA 3 24 9 56 "c" "n" 664.05 1 100 1000 "1" 0 1 341
"227" 6 17 "?" "P" "d" 650.57 NA 4 56 7 24 "i" "j" 1952.53 1 100 1000 "1" 0 1 342
"227" 6 18 "?" "N" "f" 1171.95 NA 8 56 2 24 "c" "j" 567.12 1 100 1000 "1" 0 1 343
"227" 6 19 "?" "P" "d" 192.62 NA 8 56 3 24 "c" "j" 561.15 1 1000 1000 "1" 0 1 344
"227" 6 20 "?" "P" "d" 1052.26 NA 2 24 9 56 "c" "n" 520.67 1 100 100 "0" 0 0 345
"227" 6 21 "?" "P" "d" 336.41 NA 9 56 3 24 "c" "j" 544.88 1 1000 100 "0" 0 0 346
"227" 6 22 "?" "N" "f" 456.97 NA 8 24 4 56 "i" "j" 772.2 1 100 1000 "1" 0 1 347
"227" 6 23 "?" "P" "d" 529.94 NA 9 24 3 56 "i" "n" 847.41 1 100 100 "1" 0 1 348
"227" 6 24 "?" "N" "f" 188.2 NA 9 24 2 56 "i" "j" 1446.67 1 1000 100 "1" 0 1 349
"227" 6 25 "?" "P" "d" 74.1 NA 3 24 9 56 "c" "n" 424.38 1 1000 1000 "1" 0 1 350
"227" 6 26 "?" "N" "f" 926.36 NA 4 56 9 24 "i" "j" 549.32 0 100 1000 "1" 0 1 351
"227" 6 27 "?" "P" "d" 1125.82 NA 2 56 8 24 "i" "j" 503.77 1 100 1000 "1" 1 1 352
"227" 6 28 "?" "N" "f" 663.23 NA 7 24 3 56 "i" "j" 576.54 1 100 100 "1" 0 1 353
"227" 6 29 "?" "P" "d" 590.8 NA 7 56 4 24 "c" "j" 672.36 1 100 1000 "1" 0 1 354
"227" 6 30 "?" "N" "f" -272.17 NA 9 56 2 24 "c" "j" 979.55 1 1000 100 "1" 0 1 355
"227" 6 31 "?" "N" "f" 717.28 NA 4 56 7 24 "i" "j" 636.48 0 100 100 "0" 0 0 356
"227" 6 32 "?" "N" "f" -93.53 NA 3 24 8 56 "c" "j" 999.57 0 1000 1000 "0" 1 0 357
"227" 6 33 "?" "N" "f" 990.62 NA 9 56 2 24 "c" "j" 1166.07 1 100 100 "0" 1 0 358
"227" 6 34 "?" "N" "f" 540.52 NA 4 24 7 56 "c" "n" 536.25 1 100 1000 "0" 0 0 359
"227" 6 35 "?" "N" "f" 661.97 NA 3 56 7 24 "i" "j" 1305.62 0 100 1000 "0" 0 0 360
"227" 6 36 "?" "N" "f" 630.2 NA 9 24 2 56 "i" "j" 791.63 1 100 100 "0" 1 0 361
"227" 6 37 "?" "P" "d" 667.78 NA 7 24 3 56 "i" "n" 1357.11 1 100 100 "1" 0 1 362
"227" 6 38 "?" "P" "d" 170.1 NA 8 56 4 24 "c" "j" 533.24 1 1000 100 "0" 0 0 363
"227" 6 39 "?" "P" "d" 979.84 NA 2 24 9 56 "c" "n" 620.81 1 100 1000 "0" 0 0 364
"227" 6 40 "?" "N" "f" 336.72 NA 4 56 9 24 "i" "n" 791.95 1 1000 100 "1" 0 1 365
"227" 6 41 "?" "N" "f" 1331.26 NA 3 24 9 56 "c" "n" 409.06 1 100 100 "0" 0 0 366
"227" 6 42 "?" "N" "f" 522.81 NA 8 24 2 56 "i" "j" 614.14 1 100 100 "0" 0 0 367
"227" 6 43 "?" "P" "d" 425.89 NA 9 56 4 24 "c" "j" 573.44 1 100 100 "1" 0 1 368
"227" 6 44 "?" "N" "f" -258.68 NA 3 24 7 56 "c" "n" 609.31 1 1000 1000 "1" 0 1 369
"227" 6 45 "?" "P" "d" 397.92 NA 4 24 7 56 "c" "n" 724.8 1 1000 100 "1" 0 1 370
"227" 6 46 "?" "N" "f" -212.55 NA 9 24 2 56 "i" "j" 712.02 1 1000 1000 "1" 0 1 371
"227" 6 47 "?" "P" "d" 320.77 NA 3 56 7 24 "i" "n" 758.7 0 1000 1000 "1" 0 1 372
"227" 6 48 "?" "P" "d" 656.44 NA 8 24 2 56 "i" "n" 985.82 1 1000 100 "0" 1 0 373
"227" 6 49 "?" "N" "f" 1550.24 NA 3 56 8 24 "i" "n" 803.72 1 100 1000 "1" 0 1 374
"227" 6 50 "?" "N" "f" 357.95 NA 9 56 2 24 "c" "j" 583.86 1 1000 100 "0" 0 0 375
"227" 6 51 "?" "N" "f" 326.03 NA 3 56 9 24 "i" "n" 562.67 1 1000 100 "0" 0 0 376
"227" 6 52 "?" "P" "d" 1583.18 NA 2 56 8 24 "i" "j" 499.3 1 100 1000 "1" 0 1 377
"227" 6 53 "?" "P" "d" 696.42 NA 9 24 4 56 "i" "n" 1060.48 1 1000 1000 "0" 0 0 378
"227" 6 54 "?" "P" "d" 94.72 NA 3 56 9 24 "i" "j" 484.34 1 1000 1000 "0" 0 0 379
"227" 6 55 "?" "P" "d" 316.2 NA 4 56 7 24 "i" "j" 636.05 1 1000 100 "0" 0 0 380
"227" 6 56 "?" "N" "f" 300.96 NA 2 56 7 24 "i" "n" 564.72 1 1000 1000 "1" 0 1 381
"227" 6 57 "?" "N" "f" 323.64 NA 4 24 7 56 "c" "n" 480.64 1 1000 1000 "0" 0 0 382
"227" 6 58 "?" "N" "f" 346.55 NA 3 24 7 56 "c" "n" 532.07 1 1000 100 "0" 0 0 383
"227" 6 59 "?" "N" "f" 2238.94 NA 4 24 9 56 "c" "n" 555.17 1 100 1000 "0" 0 0 384
"227" 6 60 "?" "P" "d" 359.31 NA 8 56 3 24 "c" "j" 426.55 1 1000 1000 "1" 0 1 385
"227" 6 61 "?" "P" "d" 928.05 NA 9 24 4 56 "i" "n" 709.32 1 100 100 "0" 0 0 386
"227" 6 62 "?" "P" "d" 2075.05 NA 3 24 7 56 "c" "n" 480.17 1 100 100 "0" 0 0 387
"227" 6 63 "?" "N" "f" 481.94 NA 8 24 2 56 "i" "j" 668.9 1 100 100 "1" 0 1 388
"227" 6 64 "?" "N" "f" 1629.48 NA 7 56 3 24 "c" "j" 428.4 1 100 1000 "0" 0 0 389
"227" 6 65 "?" "P" "d" 197.8 NA 4 56 7 24 "i" "j" 397.14 1 1000 1000 "1" 0 1 390
"225" 1 1 "?" "N" "d" 1901.4 NA 2 24 8 56 "c" "n" 490.08 1 1000 1000 "-1" 0 -1 1
"225" 1 2 "?" "N" "d" 1115.63 NA 4 24 7 56 "c" "n" 589.6 1 100 1000 "0" 0 0 2
"225" 1 3 "?" "P" "f" 146.47 NA 9 24 3 56 "i" "n" 891.89 1 1000 1000 "1" 0 1 3
"225" 1 4 "?" "P" "f" 103.88 NA 8 24 4 56 "i" "n" 1310.49 1 1000 100 "0" 0 0 4
"225" 1 5 "?" "N" "d" 556.89 NA 9 56 2 24 "c" "j" 457.67 1 100 1000 "1" 0 1 5
"225" 1 6 "?" "P" "f" 350.59 NA 4 24 8 56 "c" "n" 1121.79 1 1000 100 "1" 0 1 6
"225" 1 7 "?" "N" "d" 472 NA 3 24 8 56 "c" "n" 738.67 1 100 100 "1" 0 1 7
"225" 1 8 "?" "P" "f" -114.59 NA 2 56 8 24 "i" "j" 653.15 1 1000 100 "1" 0 1 8
"225" 1 9 "?" "N" "d" 640.35 NA 3 56 7 24 "i" "n" 1211.09 1 100 1000 "1" 0 1 9
"225" 1 10 "?" "P" "f" -311.82 NA 7 56 2 24 "c" "j" 816.09 1 1000 100 "1" 0 1 10
"225" 1 11 "?" "N" "d" 641.84 NA 4 24 9 56 "c" "n" 718.15 1 100 100 "1" 0 1 11
"225" 1 12 "?" "N" "d" 637.81 NA 7 24 2 56 "i" "j" 995.88 1 100 100 "0" 0 0 12
"225" 1 13 "?" "P" "f" -264.6 NA 3 24 8 56 "c" "n" 502.7 1 1000 1000 "1" 0 1 13
"225" 1 14 "?" "P" "f" 380.35 NA 7 24 4 56 "i" "n" 858.17 1 100 1000 "0" 0 0 14
"225" 1 15 "?" "N" "d" 306.7 NA 9 24 3 56 "i" "j" 862.99 1 100 1000 "1" 0 1 15
"225" 1 16 "?" "N" "d" 390.82 NA 2 24 9 56 "c" "n" 740.34 1 100 100 "0" 0 0 16
"225" 1 17 "?" "P" "f" -394.12 NA 9 56 4 24 "c" "j" 452.89 1 1000 100 "1" 0 1 17
"225" 1 18 "?" "P" "f" -71.69 NA 8 24 2 56 "i" "n" 1258.5 1 1000 100 "0" 0 0 18
"225" 1 19 "?" "P" "f" 610.84 NA 7 24 3 56 "i" "n" 1327.6 1 100 1000 "0" 0 0 19
"225" 1 20 "?" "N" "d" -626.76 NA 8 56 2 24 "c" "j" 816.89 1 1000 100 "1" 0 1 20
"225" 1 21 "?" "N" "d" -328.2 NA 3 24 9 56 "c" "n" 585.14 1 1000 1000 "0" 0 0 21
"225" 1 22 "?" "N" "d" 458.17 NA 8 56 4 24 "c" "j" 538.88 1 100 100 "0" 0 0 22
"225" 1 23 "?" "P" "f" -260.2 NA 2 24 7 56 "c" "n" 1024.55 1 1000 1000 "1" 0 1 23
"225" 1 24 "?" "N" "d" 688.71 NA 3 56 7 24 "i" "n" 1671.76 1 100 100 "1" 0 1 24
"225" 1 25 "?" "P" "f" -250.58 NA 2 56 8 24 "i" "j" 685.21 1 1000 1000 "1" 0 1 25
"225" 1 26 "?" "N" "d" 267.22 NA 9 56 3 24 "c" "j" 593.17 1 100 100 "1" 0 1 26
"225" 1 27 "?" "N" "d" 972.8 NA 2 24 9 56 "c" "n" 477.85 1 100 1000 "0" 0 0 27
"225" 1 28 "?" "P" "f" -298.75 NA 8 56 3 24 "c" "j" 727.59 1 1000 100 "1" 0 1 28
"225" 1 29 "?" "N" "d" -254.66 NA 2 56 7 24 "i" "n" 1233.17 1 1000 1000 "1" 0 1 29
"225" 1 30 "?" "P" "f" 415.82 NA 4 56 8 24 "i" "j" 466.24 1 100 1000 "1" 0 1 30
"225" 1 31 "?" "P" "f" 394.78 NA 7 56 3 24 "c" "j" 754.54 1 100 1000 "0" 0 0 31
"225" 1 32 "?" "N" "d" 382.31 NA 8 24 4 56 "i" "j" 1129.42 1 100 1000 "1" 0 1 32
"225" 1 33 "?" "N" "d" 333.75 NA 8 56 2 24 "c" "j" 727.69 1 100 100 "0" 0 0 33
"225" 1 34 "?" "P" "f" -603.29 NA 4 56 9 24 "i" "n" 838.06 0 1000 1000 "1" 0 1 34
"225" 1 35 "?" "N" "d" 450.42 NA 7 24 3 56 "i" "j" 704.95 1 100 100 "1" 1 1 35
"225" 1 36 "?" "P" "f" 787.64 NA 7 56 2 24 "c" "j" 793.06 1 100 100 "1" 0 1 36
"225" 1 37 "?" "N" "d" 161.46 NA 8 56 4 24 "c" "j" 924.04 1 1000 1000 "1" 0 1 37
"225" 1 38 "?" "N" "d" 80.12 NA 2 24 9 56 "c" "n" 521.53 1 1000 100 "0" 0 0 38
"225" 1 39 "?" "N" "d" 595.13 NA 9 24 4 56 "i" "j" 687.72 1 1000 1000 "0" 0 0 39
"225" 1 40 "?" "P" "f" 168.51 NA 7 24 2 56 "i" "j" 599.79 0 100 100 "1" 0 1 40
"225" 1 41 "?" "P" "f" 427.28 NA 3 24 9 56 "c" "n" 630.41 1 1000 100 "0" 1 0 41
"225" 1 42 "?" "P" "f" 673.93 NA 2 24 9 56 "c" "n" 670.41 1 100 1000 "0" 0 0 42
"225" 1 43 "?" "N" "d" -36.67 NA 3 24 7 56 "c" "n" 754.01 1 1000 100 "1" 0 1 43
"225" 1 44 "?" "N" "d" 753.14 NA 7 56 2 24 "c" "j" 599.78 1 100 1000 "0" 0 0 44
"225" 1 45 "?" "N" "d" -519.52 NA 9 24 4 56 "i" "j" 686.2 1 1000 1000 "0" 0 0 45
"225" 1 46 "?" "N" "d" -386.63 NA 3 56 8 24 "i" "n" 550.27 1 1000 100 "0" 0 0 46
"225" 1 47 "?" "P" "f" -687.59 NA 9 24 4 56 "i" "n" 776.82 1 1000 1000 "1" 0 1 47
"225" 1 48 "?" "P" "f" -626.45 NA 9 56 2 24 "c" "j" 478.02 1 1000 1000 "0" 0 0 48
"225" 1 49 "?" "P" "f" 512.78 NA 9 24 3 56 "i" "n" 880.96 1 100 100 "0" 0 0 49
"225" 1 50 "?" "N" "d" -319.48 NA 2 24 8 56 "c" "n" 588.24 1 1000 1000 "1" 0 1 50
"225" 1 51 "?" "N" "d" 44.17 NA 9 24 4 56 "i" "j" 586.93 1 1000 100 "0" 0 0 51
"225" 1 52 "?" "N" "d" 1011.76 NA 9 24 2 56 "i" "j" 809.94 1 100 1000 "0" 0 0 52
"225" 1 53 "?" "N" "d" 961.88 NA 9 24 3 56 "i" "j" 653.93 1 100 100 "0" 0 0 53
"225" 1 54 "?" "P" "f" 741.98 NA 4 24 7 56 "c" "n" 796.89 1 100 100 "1" 0 1 54
"225" 1 55 "?" "P" "f" -161.88 NA 8 24 2 56 "i" "n" 1089.08 1 1000 1000 "0" 0 0 55
"225" 1 56 "?" "N" "d" 652.12 NA 7 24 3 56 "i" "j" 1071.88 1 1000 100 "1" 0 1 56
"225" 1 57 "?" "N" "d" 1508.19 NA 8 56 2 24 "c" "j" 513.69 1 100 1000 "0" 0 0 57
"225" 1 58 "?" "N" "d" 695.58 NA 3 56 7 24 "i" "n" 743.25 1 100 1000 "0" 0 0 58
"225" 1 59 "?" "P" "f" -244.17 NA 2 56 8 24 "i" "j" 928.3 1 1000 100 "1" 0 1 59
"225" 1 60 "?" "P" "f" 4.67 NA 9 56 3 24 "c" "j" 456.98 1 1000 1000 "0" 0 0 60
