subj	block	trial	task_cue	task	choice_resp	choiceRT	choice_acc	topnum	topsize	botnum	botsize	cong	task_resp	taskRT	task_acc	RSI	CSI	altRep	E1
001	1	1	?	P	d	1003.62	NA	2	24	9	56	c	n	5425.62	1	100	100	-1	0
001	1	2	?	N	f	2772.0	NA	9	24	3	56	i	j	1020.68	1	1000	100	0	0
001	1	3	?	P	d	385.21	NA	8	56	4	24	c	j	2388.33	1	1000	100	0	0
001	1	4	?	N	f	4023.61	NA	3	56	8	24	i	n	719.82	1	100	1000	0	0
001	1	5	?	N	f	3122.67	NA	7	56	4	24	c	j	603.75	1	100	1000	0	0
001	1	6	?	N	f	869.92	NA	9	56	2	24	c	j	753.13	1	1000	1000	0	0
001	1	7	?	P	d	2388.38	NA	4	24	8	56	c	n	417.78	1	100	1000	0	0
001	1	8	?	P	d	686.11	NA	3	24	8	56	c	n	636.6	1	1000	100	0	0
001	1	9	?	P	d	2254.78	NA	7	56	2	24	c	j	687.07	1	100	1000	0	0
001	1	10	?	N	f	1804.66	NA	8	24	3	56	i	j	902.93	1	100	1000	0	0
001	1	11	?	N	f	2321.66	NA	7	24	2	56	i	j	836.9	1	100	1000	0	0
001	1	12	?	P	d	1888.07	NA	3	24	7	56	c	n	836.35	1	100	100	0	0
001	1	13	?	N	f	636.23	NA	9	24	2	56	i	j	919.99	1	100	100	0	0
001	1	14	?	P	d	2388.4	NA	3	56	9	24	i	j	1204.34	1	1000	1000	0	0
001	1	15	?	N	f	1520.66	NA	9	56	4	24	c	j	903.87	1	100	100	0	0
001	1	16	?	N	f	636.29	NA	2	24	8	56	c	n	469.37	1	1000	1000	0	0
001	1	17	?	P	d	469.49	NA	4	56	9	24	i	j	2272.12	1	1000	100	0	0
001	1	18	?	N	f	2422.1	NA	2	24	7	56	c	n	986.8	1	100	100	0	0
001	1	19	?	P	d	469.7	NA	8	24	3	56	i	n	1604.77	1	100	1000	0	0
001	1	20	?	N	f	35.79	NA	9	56	2	24	c	j	1387.44	1	1000	100	0	0
001	1	21	?	P	d	501.02	NA	9	24	4	56	i	n	1587.13	1	1000	100	0	0
001	1	22	?	N	f	870.02	NA	8	24	3	56	i	j	1036.72	1	100	1000	0	0
001	1	23	?	N	f	452.57	NA	4	24	9	56	c	n	686.59	1	1000	1000	0	0
001	1	24	?	P	d	1787.66	NA	7	56	3	24	c	j	1118.03	1	100	100	0	0
001	1	25	?	P	d	385.94	NA	2	24	7	56	c	n	903.21	1	1000	100	0	0
001	1	26	?	P	d	419.73	NA	9	24	4	56	i	n	1437.3	1	1000	1000	0	0
001	1	27	?	P	d	1903.92	NA	7	56	3	24	c	j	1937.74	1	100	100	0	0
001	1	28	?	N	f	1787.02	NA	4	24	7	56	c	n	1371.04	1	100	1000	0	0
001	1	29	?	N	f	552.98	NA	3	24	9	56	c	n	569.58	1	1000	1000	0	0
001	1	30	?	N	f	2622.25	NA	9	56	4	24	c	j	884.86	1	100	100	0	0
001	1	31	?	N	f	569.04	NA	3	56	9	24	i	n	786.53	1	100	100	0	0
001	1	32	?	N	f	69.25	NA	8	56	2	24	c	j	769.76	1	1000	1000	0	0
001	1	33	?	P	d	1820.83	NA	8	24	3	56	i	n	1069.76	1	100	100	0	0
001	1	34	?	P	d	2772.06	NA	2	56	9	24	i	j	1253.38	1	1000	1000	0	0
001	1	35	?	P	d	3506.2	NA	7	56	3	24	c	j	817.88	1	1000	1000	0	0
001	1	36	?	N	f	1637.35	NA	2	56	7	24	i	n	786.7	1	100	100	0	0
001	1	37	?	N	f	1971.16	NA	9	56	4	24	c	j	687.08	1	100	1000	0	0
001	1	38	?	N	f	919.91	NA	7	56	3	24	c	j	619.82	1	1000	100	0	0
001	1	39	?	P	d	486.23	NA	2	24	8	56	c	n	569.81	1	1000	100	0	0
001	1	40	?	P	d	770.11	NA	4	24	7	56	c	n	553.66	1	100	1000	0	0
001	1	41	?	P	d	69.01	NA	3	56	8	24	i	j	718.0	1	1000	100	0	0
001	1	42	?	P	d	318.94	NA	9	24	4	56	i	n	586.14	1	1000	100	0	0
001	1	43	?	P	d	836.76	NA	2	24	9	56	c	n	486.29	1	100	100	0	0
001	1	44	?	P	d	252.98	NA	7	56	3	24	c	j	620.21	1	1000	1000	0	0
001	1	45	?	N	f	402.66	NA	2	24	9	56	c	n	503.1	1	100	1000	0	0
001	1	46	?	N	f	868.73	NA	3	24	7	56	c	n	753.01	1	100	100	0	0
001	1	47	?	N	f	487.17	NA	4	56	7	24	i	j	469.93	0	100	1000	0	0
001	1	48	?	N	f	669.51	NA	9	56	3	24	c	j	737.21	1	100	1000	0	1
001	1	49	?	N	f	219.36	NA	8	56	4	24	c	j	669.83	1	1000	100	0	0
001	1	50	?	N	f	1687.87	NA	9	24	2	56	i	n	870.72	0	100	100	0	0
001	1	51	?	P	d	1437.43	NA	4	56	9	24	i	j	1237.77	1	1000	1000	0	1
001	1	52	?	P	d	419.44	NA	2	24	9	56	c	n	1437.76	1	1000	1000	0	0
001	1	53	?	P	d	402.94	NA	8	24	3	56	i	n	684.66	1	1000	100	0	0
001	1	54	?	P	d	2554.94	NA	7	24	4	56	i	n	869.57	1	1000	100	0	0
001	1	55	?	N	f	702.86	NA	2	56	7	24	i	n	1571.15	1	1000	1000	0	0
001	1	56	?	N	f	502.89	NA	4	56	8	24	i	n	1037.27	1	100	1000	0	0
001	1	57	?	N	f	1303.21	NA	8	24	3	56	i	j	1070.75	1	100	100	0	0
001	1	58	?	N	f	402.28	NA	4	56	8	24	i	n	2822.41	1	1000	1000	0	0
001	1	59	?	N	f	52.7	NA	8	24	2	56	i	j	951.68	1	1000	100	0	0
001	1	60	?	P	d	35.34	NA	4	24	8	56	c	n	653.18	1	1000	100	0	0
001	1	61	?	P	d	2438.36	NA	3	56	9	24	i	j	803.93	1	100	1000	0	0
001	1	62	?	P	d	753.01	NA	7	24	2	56	i	n	786.73	1	100	100	0	0
001	1	63	?	P	d	619.83	NA	4	56	9	24	i	j	519.61	1	100	100	0	0
001	1	64	?	P	d	636.39	NA	2	56	8	24	i	j	919.97	1	1000	1000	0	0
001	1	65	?	P	d	352.32	NA	9	24	4	56	i	n	769.82	1	1000	1000	0	0
001	2	1	?	P	d	7326.45	NA	3	56	9	24	i	j	903.24	1	100	100	-1	0
001	2	2	?	N	f	436.16	NA	4	56	8	24	i	n	870.21	1	100	100	0	0
001	2	3	?	N	f	769.77	NA	2	56	8	24	i	n	736.5	1	100	1000	0	0
001	2	4	?	N	f	636.28	NA	4	56	8	24	i	n	603.31	1	1000	1000	0	0
001	2	5	?	P	d	2988.85	NA	3	24	9	56	c	n	1854.43	1	100	1000	0	0
001	2	6	?	P	d	69.08	NA	2	24	9	56	c	n	619.81	1	1000	1000	0	0
001	2	7	?	P	d	1687.63	NA	7	56	3	24	c	j	836.81	1	100	100	0	0
001	2	8	?	P	d	536.22	NA	7	56	2	24	c	j	553.06	1	100	100	0	0
001	2	9	?	P	d	486.1	NA	3	56	7	24	i	j	569.71	1	100	100	0	0
001	2	10	?	P	d	2438.34	NA	2	56	8	24	i	j	703.76	1	1000	1000	0	0
001	2	11	?	N	f	853.49	NA	4	24	9	56	c	n	552.59	1	100	100	0	0
001	2	12	?	N	f	3087.04	NA	2	24	7	56	c	n	2105.47	1	1000	1000	0	0
001	2	13	?	N	f	1603.98	NA	8	56	3	24	c	j	852.92	1	1000	1000	0	0
001	2	14	?	N	f	603.11	NA	2	56	7	24	i	n	803.4	1	100	1000	0	0
001	2	15	?	N	f	519.6	NA	8	24	4	56	i	j	2905.32	1	1000	100	0	0
001	2	16	?	P	d	1187.11	NA	7	56	3	24	c	j	2605.13	1	1000	100	0	0
001	2	17	?	P	d	435.72	NA	8	24	2	56	i	n	1171.01	1	100	100	0	0
001	2	18	?	P	d	902.73	NA	9	56	3	24	c	j	586.97	1	100	100	0	0
001	2	19	?	P	d	836.36	NA	4	24	9	56	c	n	703.79	1	1000	100	0	0
001	2	20	?	P	d	1353.93	NA	7	24	3	56	i	n	636.35	1	100	1000	0	0
001	2	21	?	N	f	552.94	NA	4	56	7	24	i	n	986.37	1	1000	1000	0	0
001	2	22	?	N	f	369.07	NA	2	24	8	56	c	n	1220.74	1	1000	100	0	0
001	2	23	?	N	f	869.68	NA	4	24	9	56	c	n	670.16	1	1000	1000	0	0
001	2	24	?	N	f	719.74	NA	7	24	3	56	i	j	936.11	1	1000	100	0	0
001	2	25	?	N	f	569.2	NA	9	56	4	24	c	j	1287.84	1	1000	100	0	0
001	2	26	?	P	d	402.89	NA	9	56	3	24	c	n	1621.09	0	1000	100	0	0
001	2	27	?	P	d	469.64	NA	4	56	9	24	i	j	1237.7	1	1000	1000	0	1
001	2	28	?	P	d	669.59	NA	3	24	9	56	c	n	703.5	1	100	100	0	0
001	2	29	?	P	d	602.37	NA	4	56	9	24	i	j	603.15	1	1000	100	0	0
001	2	30	?	P	d	753.52	NA	7	56	2	24	c	j	719.84	1	1000	1000	0	0
001	2	31	?	N	f	518.86	NA	4	24	8	56	c	n	601.3	1	1000	1000	0	0
001	2	32	?	N	f	1070.02	NA	2	24	7	56	c	n	903.32	1	1000	100	0	0
001	2	33	?	N	f	1787.61	NA	4	56	9	24	i	n	1104.09	1	1000	1000	0	0
001	2	34	?	N	f	1234.91	NA	7	56	3	24	c	j	2689.32	1	1000	1000	0	0
001	2	35	?	P	d	1687.17	NA	4	56	9	24	i	j	1170.21	1	100	100	0	0
001	2	36	?	P	d	3055.49	NA	7	24	2	56	i	n	953.81	1	100	1000	0	0
001	2	37	?	P	d	1620.79	NA	9	24	4	56	i	n	1204.03	1	100	100	0	0
001	2	38	?	P	d	1720.9	NA	3	24	7	56	c	n	1137.32	1	100	100	0	0
001	2	39	?	P	d	1504.19	NA	4	24	9	56	c	n	617.81	1	100	1000	0	0
001	2	40	?	N	f	2071.17	NA	7	56	3	24	c	j	920.22	1	100	1000	0	0
001	2	41	?	N	f	1637.3	NA	9	24	2	56	i	n	886.93	0	100	1000	0	0
001	2	42	?	N	f	2888.96	NA	7	24	3	56	i	n	702.57	0	100	1000	0	1
001	2	43	?	N	f	702.9	NA	4	24	8	56	c	n	887.04	1	1000	100	0	1
001	2	44	?	N	f	2238.2	NA	7	24	3	56	i	j	853.43	1	100	1000	0	0
001	2	45	?	P	d	2421.57	NA	4	24	8	56	c	n	1371.28	1	100	1000	0	0
001	2	46	?	P	d	736.53	NA	7	24	3	56	i	n	853.51	1	1000	100	0	0
001	2	47	?	P	d	519.73	NA	8	56	4	24	c	j	1152.04	1	1000	100	0	0
001	2	48	?	P	d	1753.61	NA	3	24	7	56	c	n	903.19	1	100	1000	0	0
001	2	49	?	P	d	1420.6	NA	7	56	4	24	c	j	736.4	1	100	100	0	0
001	2	50	?	N	f	1654.32	NA	7	24	2	56	i	j	1671.38	1	100	1000	0	0
001	2	51	?	N	f	1136.66	NA	8	24	4	56	i	j	870.05	1	100	100	0	0
001	2	52	?	N	f	986.97	NA	3	56	7	24	i	n	1737.33	1	1000	100	0	0
001	2	53	?	P	d	752.5	NA	7	24	2	56	i	n	985.83	1	1000	100	0	0
001	2	54	?	P	d	819.63	NA	8	24	3	56	i	n	1220.73	1	100	100	0	0
001	2	55	?	P	d	1853.78	NA	4	24	9	56	c	n	970.2	1	100	100	0	0
001	2	56	?	P	d	719.65	NA	8	56	3	24	c	j	1054.66	1	1000	1000	0	0
001	2	57	?	P	d	1287.89	NA	7	56	2	24	c	j	802.49	1	100	1000	0	0
001	2	58	?	N	f	2021.43	NA	9	24	3	56	i	j	1354.35	1	100	100	0	0
001	2	59	?	N	f	552.69	NA	9	24	2	56	i	j	1001.53	1	1000	100	0	0
001	2	60	?	N	f	953.26	NA	4	56	9	24	i	n	836.51	1	1000	100	0	0
001	2	61	?	N	f	553.04	NA	9	24	3	56	i	j	2622.47	1	1000	1000	0	0
001	2	62	?	N	f	903.41	NA	7	24	2	56	i	j	753.52	1	1000	1000	0	0
001	2	63	?	N	f	2588.77	NA	9	56	4	24	c	j	1454.24	1	100	1000	0	0
001	2	64	?	P	d	452.03	NA	7	24	3	56	i	n	903.59	1	1000	1000	0	0
001	2	65	?	P	d	803.36	NA	8	56	4	24	c	j	2355.01	1	100	1000	0	0
001	3	1	?	N	f	3339.28	NA	9	24	2	56	i	j	1203.41	1	100	100	-1	0
001	3	2	?	N	f	801.32	NA	7	24	4	56	i	j	753.68	1	100	100	0	0
001	3	3	?	N	f	169.22	NA	3	24	7	56	c	n	703.13	1	1000	100	0	0
001	3	4	?	P	d	1187.01	NA	2	24	9	56	c	n	803.65	1	100	100	0	0
001	3	5	?	P	d	2154.66	NA	9	24	4	56	i	n	1287.23	1	1000	100	0	0
001	3	6	?	P	d	669.9	NA	7	56	3	24	c	j	953.99	1	100	1000	0	0
001	3	7	?	P	d	502.48	NA	8	24	2	56	i	n	1118.52	1	1000	1000	0	0
001	3	8	?	N	f	969.98	NA	4	24	7	56	c	n	1504.15	1	1000	100	0	0
001	3	9	?	N	f	903.23	NA	2	56	9	24	i	n	1887.92	1	1000	100	0	0
001	3	10	?	N	f	3055.57	NA	7	56	3	24	c	j	2004.17	1	100	1000	0	0
001	3	11	?	P	d	2505.16	NA	4	24	8	56	c	n	1421.14	1	100	100	0	0
001	3	12	?	N	f	469.57	NA	8	56	2	24	c	j	1720.71	1	1000	100	0	0
001	3	13	?	P	d	452.43	NA	9	24	4	56	i	n	1654.99	1	1000	100	0	0
001	3	14	?	N	f	552.84	NA	9	56	3	24	c	j	1120.91	1	1000	100	0	0
001	3	15	?	P	d	318.77	NA	2	56	9	24	i	j	837.04	1	1000	100	0	0
001	3	16	?	N	f	2104.88	NA	3	56	8	24	i	n	953.08	1	100	1000	0	0
001	3	17	?	P	d	1253.8	NA	2	56	8	24	i	j	970.58	1	100	1000	0	0
001	3	18	?	N	f	402.68	NA	4	24	7	56	c	n	1418.73	1	1000	100	0	0
001	3	19	?	P	d	385.75	NA	3	24	8	56	c	j	2755.39	0	1000	1000	0	0
001	3	20	?	N	f	1336.91	NA	4	24	7	56	c	n	1687.92	1	100	1000	0	1
001	3	21	?	P	d	1403.78	NA	2	56	9	24	i	j	1304.41	1	100	1000	0	0
001	3	22	?	N	f	1420.33	NA	3	56	9	24	i	n	1771.38	1	100	100	0	0
001	3	23	?	P	d	1620.46	NA	4	24	7	56	c	n	1137.46	1	100	100	0	0
001	3	24	?	N	f	1170.41	NA	2	24	7	56	c	n	1453.9	1	100	1000	0	0
001	3	25	?	P	d	302.88	NA	3	56	8	24	i	j	1387.29	1	1000	100	0	0
001	3	26	?	N	f	1237.2	NA	4	24	7	56	c	n	803.82	1	100	1000	0	0
001	3	27	?	P	d	803.57	NA	9	56	2	24	c	j	1068.07	1	100	100	0	0
001	3	28	?	N	f	836.59	NA	8	24	4	56	i	n	670.43	0	1000	100	0	0
001	3	29	?	P	d	2621.37	NA	9	56	3	24	c	j	3906.39	1	100	100	0	1
001	3	30	?	N	f	1787.58	NA	7	24	2	56	i	j	1487.97	1	100	100	0	0
001	3	31	?	P	d	1404.07	NA	8	24	4	56	i	n	2287.85	1	100	1000	0	0
001	3	32	?	N	f	1520.52	NA	3	24	9	56	c	j	1387.44	0	1000	100	0	0
001	3	33	?	P	d	2555.51	NA	8	56	2	24	c	j	853.85	1	100	1000	0	1
001	3	34	?	N	f	435.89	NA	9	56	3	24	c	j	903.58	1	1000	1000	0	0
001	3	35	?	P	d	1468.63	NA	9	24	4	56	i	n	736.65	1	100	1000	0	0
001	3	36	?	N	f	2803.35	NA	3	56	8	24	i	j	1353.31	0	100	100	0	0
001	3	37	?	P	d	1036.6	NA	2	56	9	24	i	j	1320.22	1	1000	1000	0	1
001	3	38	?	N	f	1270.2	NA	7	56	3	24	c	j	1387.59	1	100	100	0	0
001	3	39	?	P	d	517.73	NA	8	56	2	24	c	j	9362.83	1	1000	1000	0	0
001	3	40	?	N	f	736.68	NA	9	24	4	56	i	j	1787.17	1	100	100	0	0
001	3	41	?	N	f	986.12	NA	9	56	2	24	c	j	4791.16	1	100	100	0	0
001	3	42	?	N	f	1937.83	NA	4	24	8	56	c	n	486.29	1	100	1000	0	0
001	3	43	?	N	f	435.18	NA	3	56	9	24	i	n	1403.83	1	1000	1000	0	0
001	3	44	?	N	f	836.82	NA	8	56	4	24	c	j	1037.26	1	1000	100	0	0
001	3	45	?	N	f	2288.33	NA	2	56	9	24	i	n	619.07	1	100	1000	0	0
001	3	46	?	N	f	3106.0	NA	8	24	3	56	i	j	987.36	1	100	100	0	0
001	3	47	?	P	d	2687.98	NA	2	24	9	56	c	n	1254.3	1	100	100	0	0
001	3	48	?	P	d	3272.59	NA	4	56	9	24	i	j	470.11	1	100	1000	0	0
001	3	49	?	P	d	2271.97	NA	9	24	3	56	i	n	1571.02	1	100	100	0	0
001	3	50	?	P	d	2171.49	NA	8	56	2	24	c	j	570.22	1	100	1000	0	0
001	3	51	?	P	d	553.12	NA	4	56	9	24	i	j	1303.14	1	1000	1000	0	0
001	3	52	?	N	f	469.42	NA	7	24	3	56	i	j	1805.04	1	1000	1000	0	0
001	3	53	?	N	f	1535.35	NA	7	24	4	56	i	j	1988.48	1	1000	100	0	0
001	3	54	?	N	f	235.69	NA	8	24	2	56	i	j	1170.76	1	1000	1000	0	0
001	3	55	?	N	f	1170.37	NA	8	56	3	24	c	j	803.25	1	1000	1000	0	0
001	3	56	?	N	f	1136.76	NA	2	56	8	24	i	n	953.77	1	1000	100	0	0
001	3	57	?	N	f	1036.73	NA	9	56	4	24	c	j	836.87	1	1000	1000	0	0
001	3	58	?	P	d	185.35	NA	8	24	3	56	i	n	936.56	1	1000	1000	0	0
001	3	59	?	P	d	2088.2	NA	4	24	9	56	c	n	869.81	1	1000	1000	0	0
001	3	60	?	P	d	1704.21	NA	2	56	8	24	i	j	937.34	1	100	1000	0	0
001	3	61	?	P	d	953.04	NA	8	56	3	24	c	j	770.01	1	1000	100	0	0
001	3	62	?	P	d	436.06	NA	2	24	8	56	c	n	853.4	1	1000	1000	0	0
001	3	63	?	P	d	685.96	NA	4	24	8	56	c	n	1054.02	1	1000	1000	0	0
001	3	64	?	P	d	2171.32	NA	8	24	2	56	i	n	1036.66	1	100	100	0	0
001	3	65	?	P	d	719.92	NA	8	24	3	56	i	n	853.6	1	1000	1000	0	0
001	4	1	?	N	f	2421.48	NA	2	24	7	56	c	n	1904.61	1	100	1000	-1	0
001	4	2	?	N	f	2204.55	NA	7	24	3	56	i	j	1103.47	1	100	1000	0	0
001	4	3	?	N	f	836.42	NA	4	24	8	56	c	n	786.83	1	100	100	0	0
001	4	4	?	N	f	269.39	NA	9	56	3	24	c	j	503.13	1	1000	1000	0	0
001	4	5	?	N	f	436.66	NA	2	56	8	24	i	n	636.21	1	1000	1000	0	0
001	4	6	?	N	f	335.73	NA	8	24	4	56	i	j	920.71	1	1000	1000	0	0
001	4	7	?	P	d	669.94	NA	9	56	3	24	c	j	867.91	1	1000	100	0	0
001	4	8	?	P	d	1170.18	NA	4	56	9	24	i	j	870.25	1	1000	100	0	0
001	4	9	?	P	d	669.73	NA	2	56	9	24	i	j	619.55	1	100	100	0	0
001	4	10	?	P	d	617.38	NA	3	24	7	56	c	n	652.24	1	100	1000	0	0
001	4	11	?	P	d	1086.44	NA	8	24	4	56	i	n	819.0	1	100	100	0	0
001	4	12	?	P	d	586.05	NA	3	24	7	56	c	n	469.8	1	100	1000	0	0
001	4	13	?	P	d	736.41	NA	4	24	7	56	c	n	652.95	1	100	100	0	0
001	4	14	?	P	d	586.28	NA	8	24	3	56	i	n	536.36	1	100	1000	0	0
001	4	15	?	N	f	820.11	NA	2	56	7	24	i	n	1220.36	1	100	1000	0	0
001	4	16	?	N	f	436.0	NA	4	56	8	24	i	n	2471.43	1	1000	100	0	0
001	4	17	?	N	f	1219.67	NA	3	24	7	56	c	n	602.57	1	1000	1000	0	0
001	4	18	?	N	f	970.0	NA	8	56	4	24	c	j	852.95	1	1000	100	0	0
001	4	19	?	N	f	870.15	NA	2	56	8	24	i	n	720.1	1	100	1000	0	0
001	4	20	?	P	d	202.54	NA	3	56	9	24	i	j	719.95	1	1000	1000	0	0
001	4	21	?	P	d	552.49	NA	2	24	9	56	c	n	1354.09	1	1000	100	0	0
001	4	22	?	P	d	636.48	NA	7	56	3	24	c	j	737.08	1	100	100	0	0
001	4	23	?	P	d	469.6	NA	4	56	8	24	i	j	619.51	1	100	1000	0	0
001	4	24	?	P	d	586.17	NA	7	56	3	24	c	j	669.26	1	1000	100	0	0
001	4	25	?	P	d	369.2	NA	2	56	7	24	i	j	619.17	1	1000	100	0	0
001	4	26	?	P	d	1403.48	NA	9	24	4	56	i	n	1620.45	1	1000	1000	0	0
001	4	27	?	P	d	786.5	NA	7	24	2	56	i	n	686.44	1	100	100	0	0
001	4	28	?	P	d	819.47	NA	7	56	4	24	c	j	703.41	1	100	1000	0	0
001	4	29	?	N	f	786.62	NA	3	24	8	56	c	n	1036.84	1	100	1000	0	0
001	4	30	?	N	f	669.58	NA	7	56	2	24	c	j	1020.71	1	1000	100	0	0
001	4	31	?	N	f	319.04	NA	4	24	8	56	c	n	2688.66	1	1000	1000	0	0
001	4	32	?	N	f	1203.77	NA	7	24	3	56	i	j	720.27	1	100	1000	0	0
001	4	33	?	N	f	552.82	NA	9	56	2	24	c	j	820.55	1	100	1000	0	0
001	4	34	?	N	f	369.18	NA	7	24	3	56	i	j	870.15	1	1000	100	0	0
001	4	35	?	P	d	251.9	NA	9	56	4	24	c	j	903.7	1	1000	1000	0	0
001	4	36	?	P	d	736.46	NA	7	24	3	56	i	n	769.92	1	100	1000	0	0
001	4	37	?	P	d	619.61	NA	4	56	9	24	i	j	653.63	1	100	100	0	0
001	4	38	?	P	d	369.31	NA	7	24	2	56	i	n	736.49	1	1000	100	0	0
001	4	39	?	P	d	585.77	NA	3	56	8	24	i	j	600.71	1	100	100	0	0
001	4	40	?	N	f	636.24	NA	4	24	7	56	c	n	2371.64	1	1000	100	0	0
001	4	41	?	N	f	702.82	NA	3	56	8	24	i	n	903.41	1	1000	100	0	0
001	4	42	?	N	f	1287.37	NA	9	56	4	24	c	j	585.9	1	100	100	0	0
001	4	43	?	N	f	369.42	NA	3	56	7	24	i	n	1169.45	1	1000	1000	0	0
001	4	44	?	N	f	2504.84	NA	9	56	2	24	c	j	670.27	1	100	1000	0	0
001	4	45	?	N	f	1670.31	NA	9	56	3	24	c	j	669.2	1	100	100	0	0
001	4	46	?	N	f	1187.07	NA	4	24	9	56	c	n	887.18	1	100	100	0	0
001	4	47	?	P	d	52.41	NA	3	24	9	56	c	n	920.2	1	1000	1000	0	0
001	4	48	?	P	d	452.79	NA	9	24	4	56	i	n	704.1	1	1000	1000	0	0
001	4	49	?	P	d	402.81	NA	2	24	8	56	c	n	719.99	1	1000	100	0	0
001	4	50	?	P	d	1954.53	NA	9	56	3	24	c	j	619.53	1	100	100	0	0
001	4	51	?	P	d	486.29	NA	4	56	7	24	i	j	686.22	1	1000	100	0	0
001	4	52	?	P	d	1921.4	NA	2	24	9	56	c	n	654.07	1	100	1000	0	0
001	4	53	?	N	f	1554.11	NA	4	24	8	56	c	n	853.03	1	1000	100	0	0
001	4	54	?	N	f	536.29	NA	9	56	2	24	c	j	853.15	1	1000	1000	0	0
001	4	55	?	N	f	2236.19	NA	8	24	4	56	i	j	1387.11	1	100	100	0	0
001	4	56	?	N	f	1620.53	NA	2	56	8	24	i	n	869.13	1	100	100	0	0
001	4	57	?	N	f	403.28	NA	8	24	4	56	i	j	753.35	1	1000	1000	0	0
001	4	58	?	N	f	586.42	NA	3	56	8	24	i	n	786.76	1	1000	100	0	0
001	4	59	?	P	d	1988.1	NA	7	24	2	56	i	n	870.37	1	100	100	0	0
001	4	60	?	P	d	503.14	NA	4	56	8	24	i	j	653.22	1	1000	1000	0	0
001	4	61	?	P	d	703.46	NA	8	56	3	24	c	j	670.38	1	100	1000	0	0
001	4	62	?	P	d	469.19	NA	7	56	2	24	c	j	2571.21	1	1000	1000	0	0
001	4	63	?	P	d	3172.67	NA	4	56	7	24	i	j	1185.33	1	100	1000	0	0
001	4	64	?	N	f	886.05	NA	3	24	8	56	c	n	2720.12	1	1000	1000	0	0
001	4	65	?	N	f	2956.41	NA	4	24	7	56	c	n	1053.7	1	100	100	0	0
001	5	1	?	N	f	252.56	NA	7	24	2	56	i	j	2071.59	1	1000	100	-1	0
001	5	2	?	N	f	953.15	NA	3	24	8	56	c	n	917.72	1	1000	1000	0	0
001	5	3	?	P	d	735.97	NA	4	56	8	24	i	j	503.13	1	1000	1000	0	0
001	5	4	?	P	d	469.5	NA	8	56	2	24	c	j	937.43	1	1000	1000	0	0
001	5	5	?	P	d	485.4	NA	4	56	9	24	i	j	719.65	1	1000	100	0	0
001	5	6	?	P	d	352.48	NA	7	56	2	24	c	j	619.91	1	1000	1000	0	0
001	5	7	?	P	d	2638.44	NA	7	56	4	24	c	j	686.5	1	100	100	0	0
001	5	8	?	N	f	418.74	NA	9	24	2	56	i	j	753.29	1	1000	1000	0	0
001	5	9	?	N	f	2571.34	NA	3	56	8	24	i	n	1920.77	1	100	100	0	0
001	5	10	?	N	f	552.49	NA	7	24	2	56	i	j	1054.26	1	1000	100	0	0
001	5	11	?	N	f	2937.15	NA	7	56	3	24	c	j	720.24	1	100	100	0	0
001	5	12	?	P	d	1921.53	NA	8	24	4	56	i	n	753.43	1	100	1000	0	0
001	5	13	?	P	d	552.96	NA	8	56	2	24	c	j	1087.54	1	1000	100	0	0
001	5	14	?	P	d	669.51	NA	8	56	3	24	c	j	737.12	1	100	1000	0	0
001	5	15	?	P	d	735.96	NA	2	24	7	56	c	n	986.52	1	1000	100	0	0
001	5	16	?	P	d	1854.08	NA	7	56	3	24	c	j	720.26	1	100	1000	0	0
001	5	17	?	N	f	1687.28	NA	2	24	7	56	c	n	1604.31	1	100	100	0	0
001	5	18	?	N	f	1637.58	NA	9	24	3	56	i	j	2138.27	1	100	1000	0	0
001	5	19	?	N	f	435.8	NA	2	56	7	24	i	n	867.88	1	1000	100	0	0
001	5	20	?	N	f	2154.29	NA	3	24	8	56	c	n	786.99	1	1000	100	0	0
001	5	21	?	P	d	319.11	NA	2	56	9	24	i	j	535.6	1	1000	1000	0	0
001	5	22	?	P	d	720.18	NA	7	24	3	56	i	n	803.7	1	1000	1000	0	0
001	5	23	?	P	d	552.84	NA	4	56	9	24	i	j	1604.16	1	1000	1000	0	0
001	5	24	?	P	d	1754.12	NA	2	24	7	56	c	n	970.29	1	100	1000	0	0
001	5	25	?	N	f	1287.02	NA	3	56	7	24	i	n	1152.91	1	100	100	0	0
001	5	26	?	N	f	2305.74	NA	7	24	4	56	i	j	901.78	1	100	100	0	0
001	5	27	?	N	f	770.22	NA	3	56	9	24	i	n	686.31	1	100	1000	0	0
001	5	28	?	N	f	3590.73	NA	9	24	4	56	i	j	3290.08	1	100	1000	0	0
001	5	29	?	N	f	2338.14	NA	2	24	9	56	c	n	637.16	1	100	1000	0	0
001	5	30	?	N	f	886.9	NA	3	56	9	24	i	n	852.59	1	100	100	0	0
001	5	31	?	N	f	1053.08	NA	8	56	4	24	c	j	1186.92	1	100	1000	0	0
001	5	32	?	P	d	369.18	NA	9	24	2	56	i	n	920.08	1	1000	1000	0	0
001	5	33	?	P	d	619.74	NA	4	24	9	56	c	n	1237.81	1	1000	1000	0	0
001	5	34	?	P	d	1320.5	NA	3	56	9	24	i	j	919.84	1	100	1000	0	0
001	5	35	?	P	d	986.64	NA	8	56	2	24	c	j	803.54	1	100	1000	0	0
001	5	36	?	P	d	1119.64	NA	8	24	4	56	i	n	586.72	1	100	1000	0	0
001	5	37	?	P	d	653.3	NA	9	56	2	24	c	j	686.44	1	1000	100	0	0
001	5	38	?	N	f	386.19	NA	4	56	8	24	i	n	3873.75	1	1000	100	0	0
001	5	39	?	N	f	452.49	NA	7	56	2	24	c	j	853.6	1	1000	1000	0	0
001	5	40	?	N	f	1820.38	NA	8	24	4	56	i	j	903.88	1	100	1000	0	0
001	5	41	?	N	f	836.45	NA	8	56	3	24	c	j	669.53	1	100	100	0	0
001	5	42	?	N	f	1552.26	NA	9	24	4	56	i	j	786.67	1	1000	100	0	0
001	5	43	?	N	f	1270.39	NA	2	24	7	56	c	n	687.28	1	100	1000	0	0
001	5	44	?	P	d	1001.49	NA	8	56	4	24	c	j	920.04	1	1000	100	0	0
001	5	45	?	P	d	386.4	NA	7	24	3	56	i	n	652.6	1	1000	100	0	0
001	5	46	?	P	d	369.4	NA	2	24	7	56	c	n	1203.69	1	1000	100	0	0
001	5	47	?	P	d	1370.1	NA	4	56	8	24	i	j	653.73	1	100	100	0	0
001	5	48	?	P	d	819.36	NA	2	24	9	56	c	n	635.86	1	100	1000	0	0
001	5	49	?	N	f	1118.32	NA	4	24	8	56	c	n	753.27	1	100	100	0	0
001	5	50	?	N	f	652.64	NA	2	24	9	56	c	n	1003.91	1	1000	1000	0	0
001	5	51	?	N	f	1871.25	NA	3	24	7	56	c	n	569.71	1	100	100	0	0
001	5	52	?	P	d	386.11	NA	7	24	4	56	i	n	703.97	1	1000	1000	0	0
001	5	53	?	P	d	267.27	NA	7	24	3	56	i	n	519.92	1	1000	1000	0	0
001	5	54	?	P	d	1470.72	NA	4	24	7	56	c	n	753.4	1	100	100	0	0
001	5	55	?	P	d	1637.51	NA	3	56	7	24	i	j	736.64	1	100	100	0	0
001	5	56	?	N	f	285.96	NA	4	56	7	24	i	n	1303.41	1	1000	100	0	0
001	5	57	?	N	f	1754.42	NA	7	56	3	24	c	j	952.05	1	100	100	0	0
001	5	58	?	N	f	1020.32	NA	9	24	2	56	i	j	802.67	1	100	100	0	0
001	5	59	?	N	f	734.59	NA	3	56	9	24	i	n	603.75	1	100	1000	0	0
001	5	60	?	N	f	452.43	NA	8	56	2	24	c	j	937.23	1	1000	100	0	0
001	5	61	?	P	d	152.41	NA	8	56	4	24	c	j	1187.5	1	1000	1000	0	0
001	5	62	?	P	d	469.62	NA	2	56	9	24	i	j	1905.05	1	1000	100	0	0
001	5	63	?	P	d	870.22	NA	4	24	7	56	c	n	770.33	1	1000	100	0	0
001	5	64	?	P	d	1470.3	NA	8	24	2	56	i	n	1001.2	1	100	100	0	0
001	5	65	?	P	d	219.25	NA	4	24	7	56	c	n	1087.15	1	1000	1000	0	0
001	6	1	?	P	d	819.71	NA	9	56	2	24	c	j	685.79	1	100	1000	-1	0
001	6	2	?	P	d	485.94	NA	3	56	8	24	i	j	1003.78	1	100	100	0	0
001	6	3	?	P	d	386.19	NA	2	56	9	24	i	j	552.13	1	100	1000	0	0
001	6	4	?	P	d	536.37	NA	7	24	4	56	i	n	653.33	1	100	100	0	0
001	6	5	?	P	d	386.09	NA	2	56	8	24	i	j	703.31	1	1000	1000	0	0
001	6	6	?	N	f	2888.98	NA	8	56	4	24	c	j	1103.3	1	100	1000	0	0
001	6	7	?	N	f	519.75	NA	7	56	2	24	c	j	553.5	1	100	100	0	0
001	6	8	?	N	f	102.39	NA	9	24	4	56	i	j	919.81	1	1000	1000	0	0
001	6	9	?	N	f	970.14	NA	3	24	8	56	c	n	703.14	1	1000	100	0	0
001	6	10	?	N	f	385.62	NA	2	24	8	56	c	n	503.45	1	1000	1000	0	0
001	6	11	?	P	d	736.59	NA	8	24	4	56	i	n	720.04	1	100	1000	0	0
001	6	12	?	P	d	553.0	NA	7	56	2	24	c	j	769.14	1	100	1000	0	0
001	6	13	?	P	d	285.61	NA	8	24	4	56	i	n	987.35	1	1000	100	0	0
001	6	14	?	P	d	385.96	NA	9	56	3	24	c	j	1187.08	1	1000	1000	0	0
001	6	15	?	N	f	452.61	NA	9	24	2	56	i	j	919.87	1	1000	100	0	0
001	6	16	?	N	f	1821.24	NA	9	24	3	56	i	j	753.23	1	100	1000	0	0
001	6	17	?	N	f	319.3	NA	8	56	4	24	c	j	803.39	1	1000	1000	0	0
001	6	18	?	N	f	502.61	NA	3	24	8	56	c	n	953.14	1	1000	100	0	0
001	6	19	?	N	f	1503.88	NA	8	24	4	56	i	j	1137.62	1	100	1000	0	0
001	6	20	?	P	d	1703.98	NA	8	56	2	24	c	j	1637.93	1	100	100	0	0
001	6	21	?	P	d	352.39	NA	7	56	4	24	c	j	1654.92	1	1000	100	0	0
001	6	22	?	P	d	3672.96	NA	7	24	3	56	i	n	1120.51	1	1000	1000	0	0
001	6	23	?	P	d	369.27	NA	4	24	7	56	c	n	1087.01	1	1000	1000	0	0
001	6	24	?	P	d	853.36	NA	8	24	2	56	i	n	903.28	1	100	1000	0	0
001	6	25	?	P	d	586.49	NA	4	24	8	56	c	n	3539.92	1	100	100	0	0
001	6	26	?	P	d	753.02	NA	2	24	9	56	c	n	520.32	1	100	1000	0	0
001	6	27	?	P	d	719.6	NA	7	56	3	24	c	j	2572.74	1	100	100	0	0
001	6	28	?	N	f	1320.3	NA	4	56	7	24	i	n	1787.93	1	100	1000	0	0
001	6	29	?	N	f	1287.14	NA	8	24	2	56	i	j	720.98	1	100	100	0	0
001	6	30	?	N	f	2872.22	NA	7	24	4	56	i	j	1270.52	1	1000	100	0	0
001	6	31	?	N	f	853.1	NA	3	56	8	24	i	n	803.85	1	1000	100	0	0
001	6	32	?	N	f	1136.63	NA	7	24	4	56	i	j	719.95	1	100	100	0	0
001	6	33	?	N	f	603.16	NA	8	56	3	24	c	j	769.28	1	1000	100	0	0
001	6	34	?	N	f	436.05	NA	4	24	9	56	c	n	954.36	1	1000	100	0	0
001	6	35	?	N	f	1036.9	NA	8	56	3	24	c	j	1220.88	1	100	1000	0	0
001	6	36	?	P	d	769.53	NA	8	56	4	24	c	j	1070.59	1	1000	1000	0	0
001	6	37	?	P	d	1020.26	NA	9	56	2	24	c	j	820.26	1	1000	100	0	0
001	6	38	?	P	d	803.12	NA	7	56	3	24	c	j	919.18	1	100	1000	0	0
001	6	39	?	P	d	1720.95	NA	9	24	2	56	i	n	836.2	1	100	1000	0	0
001	6	40	?	P	d	1253.68	NA	9	24	3	56	i	n	720.29	1	100	100	0	0
001	6	41	?	P	d	636.35	NA	7	24	2	56	i	n	837.17	1	1000	100	0	0
001	6	42	?	N	f	2604.84	NA	7	24	3	56	i	j	686.54	1	100	1000	0	0
001	6	43	?	N	f	603.11	NA	7	24	2	56	i	j	619.82	1	1000	1000	0	0
001	6	44	?	N	f	1420.45	NA	8	24	3	56	i	j	702.89	1	100	100	0	0
001	6	45	?	N	f	2054.52	NA	2	24	7	56	c	n	703.79	1	100	1000	0	0
001	6	46	?	N	f	1052.91	NA	3	24	8	56	c	n	870.63	1	100	100	0	0
001	6	47	?	N	f	2088.2	NA	2	56	9	24	i	n	3272.11	1	100	100	0	0
001	6	48	?	P	d	85.88	NA	3	56	9	24	i	n	887.13	0	1000	1000	0	0
001	6	49	?	P	d	1885.98	NA	8	56	2	24	c	j	1687.82	1	100	100	0	1
001	6	50	?	P	d	352.67	NA	4	24	7	56	c	n	1220.37	1	1000	100	0	0
001	6	51	?	P	d	870.01	NA	3	24	9	56	c	n	670.09	1	100	100	0	0
001	6	52	?	P	d	2.43	NA	2	56	7	24	i	j	853.22	1	1000	100	0	0
001	6	53	?	P	d	302.65	NA	3	24	8	56	c	n	1036.79	1	1000	1000	0	0
001	6	54	?	P	d	185.9	NA	2	24	9	56	c	n	670.32	1	1000	1000	0	0
001	6	55	?	P	d	719.19	NA	7	24	3	56	i	n	1770.58	1	1000	1000	0	0
001	6	56	?	P	d	302.7	NA	8	56	4	24	c	j	1453.98	1	1000	1000	0	0
001	6	57	?	N	f	1870.38	NA	2	56	7	24	i	n	1219.87	1	1000	1000	0	0
001	6	58	?	N	f	1170.39	NA	3	24	9	56	c	n	919.88	1	100	100	0	0
001	6	59	?	N	f	819.65	NA	4	24	8	56	c	n	869.42	1	100	1000	0	0
001	6	60	?	N	f	786.66	NA	9	56	3	24	c	j	719.83	1	1000	100	0	0
001	6	61	?	N	f	919.73	NA	4	56	9	24	i	n	1437.47	1	1000	100	0	0
001	6	62	?	N	f	1120.36	NA	2	56	9	24	i	n	1521.03	1	1000	1000	0	0
001	6	63	?	N	f	1587.37	NA	3	24	7	56	c	n	1153.85	1	100	1000	0	0
001	6	64	?	N	f	436.16	NA	7	24	2	56	i	j	1204.41	1	1000	100	0	0
001	6	65	?	P	d	2504.98	NA	9	24	3	56	i	n	1454.71	1	100	100	0	0
