subj	block	trial	task_cue	task	choice_resp	choiceRT	choice_acc	topnum	topsize	botnum	botsize	cong	task_resp	taskRT	task_acc	RSI	CSI	altRep	E1
002	1	1	P	P	d	819.96	1	9	24	4	56	i	n	2571.31	1	1000	100	-1	0
002	1	2	P	P	d	1102.95	1	3	56	8	24	i	j	1320.16	1	100	100	0	0
002	1	3	N	N	f	1220.36	0	9	56	2	24	c	j	2087.81	1	100	100	1	0
002	1	4	N	N	f	853.57	0	8	24	4	56	i	j	2788.87	1	1000	100	0	0
002	1	5	N	N	f	2288.13	0	2	24	7	56	c	n	1955.01	1	100	100	0	0
002	1	6	N	N	f	1820.56	0	8	24	4	56	i	j	2254.56	1	100	100	0	0
002	1	7	N	N	f	1319.73	0	3	24	8	56	c	n	1888.65	1	100	1000	0	0
002	1	8	N	N	f	1203.55	0	8	56	4	24	c	j	3206.42	1	100	100	0	0
002	1	9	P	P	d	2071.31	1	2	24	9	56	c	n	2471.63	1	1000	1000	1	0
002	1	10	N	N	f	1752.54	0	4	56	7	24	i	n	1738.09	1	100	100	1	0
002	1	11	P	P	d	1420.52	1	2	24	9	56	c	n	3356.53	1	100	100	1	0
002	1	12	P	P	d	2087.42	1	9	24	4	56	i	n	1486.96	1	100	1000	0	0
002	1	13	N	N	f	853.03	0	9	56	3	24	c	j	1137.34	1	1000	100	1	0
002	1	14	N	N	f	819.86	0	2	56	9	24	i	j	769.22	0	1000	100	0	0
002	1	15	N	N	f	1720.75	0	8	24	4	56	i	j	2070.92	1	1000	1000	0	1
002	1	16	P	P	d	1003.89	1	3	24	7	56	c	n	1871.71	1	1000	100	1	0
002	1	17	N	N	f	1086.93	0	4	56	8	24	i	n	1234.97	1	1000	100	1	0
002	1	18	P	P	d	770.03	1	3	56	7	24	i	j	2288.2	1	1000	1000	1	0
002	1	19	P	P	d	1704.09	1	7	56	2	24	c	j	2689.47	1	1000	1000	0	0
002	1	20	P	P	d	1487.38	1	3	24	9	56	c	n	1904.33	1	100	100	0	0
002	1	21	P	P	d	1287.26	1	8	56	2	24	c	j	1137.11	1	100	1000	0	0
002	1	22	N	N	f	936.77	0	9	24	3	56	i	j	1204.18	1	100	1000	1	0
002	1	23	N	N	f	1187.03	0	2	24	9	56	c	n	2038.02	1	1000	1000	0	0
002	1	24	P	P	d	1253.97	1	9	24	4	56	i	n	1503.86	1	100	1000	1	0
002	1	25	P	P	d	8078.11	1	9	24	2	56	i	n	1737.68	1	1000	1000	0	0
002	1	26	P	P	d	1353.81	1	3	24	8	56	c	n	6276.24	1	1000	100	0	0
002	1	27	P	P	d	4924.18	1	7	24	4	56	i	n	1237.58	1	1000	100	0	0
002	1	28	N	N	f	1587.54	0	7	24	3	56	i	n	2686.4	0	100	100	1	0
002	1	29	N	N	f	2204.06	0	4	56	9	24	i	n	1287.29	1	100	1000	0	1
002	1	30	P	P	d	920.17	1	7	56	2	24	c	j	1587.55	1	100	1000	1	0
002	1	31	N	N	f	3857.38	0	9	56	4	24	c	j	1337.79	1	100	1000	1	0
002	1	32	N	N	f	786.37	0	2	24	9	56	c	n	1387.82	1	1000	100	0	0
002	1	33	N	N	f	936.42	0	8	24	4	56	i	j	1370.04	1	100	1000	0	0
002	1	34	P	P	d	603.03	1	7	56	3	24	c	j	1488.34	1	1000	1000	1	0
002	1	35	N	N	f	1453.83	0	4	24	9	56	c	n	1821.12	1	100	1000	1	0
002	1	36	N	N	f	852.62	0	7	56	3	24	c	j	2455.14	1	100	1000	0	0
002	1	37	N	N	f	1236.83	0	9	56	2	24	c	j	1403.85	1	1000	1000	0	0
002	1	38	P	P	d	686.53	1	8	24	4	56	i	n	919.87	1	1000	100	1	0
002	1	39	N	N	f	902.99	0	9	24	3	56	i	j	2439.11	1	1000	100	1	0
002	1	40	P	P	d	803.47	1	4	56	9	24	i	j	1271.42	1	100	1000	1	0
002	1	41	N	N	f	752.75	0	3	24	9	56	c	n	2138.74	1	100	100	1	0
002	1	42	P	P	d	1387.63	1	9	56	4	24	c	j	2071.64	1	100	100	1	0
002	1	43	N	N	f	769.97	0	2	24	8	56	c	n	970.3	1	1000	100	1	0
002	1	44	P	P	d	870.08	1	3	56	8	24	i	j	1837.5	1	1000	100	1	0
002	1	45	P	P	d	769.82	1	8	56	2	24	c	j	1003.89	1	1000	100	0	0
002	1	46	P	P	d	569.49	1	8	24	4	56	i	n	670.27	1	100	100	0	0
002	1	47	P	P	d	469.51	1	9	56	2	24	c	j	636.48	1	100	100	0	0
002	1	48	P	P	d	452.94	1	3	24	7	56	c	n	602.95	1	1000	1000	0	0
002	1	49	P	P	d	535.84	1	2	24	7	56	c	n	519.76	1	100	1000	0	0
002	1	50	N	N	f	636.8	0	8	56	3	24	c	j	819.99	1	1000	1000	1	0
002	1	51	P	P	d	452.79	1	9	56	2	24	c	j	670.24	1	1000	100	1	0
002	1	52	N	N	f	770.0	0	9	24	3	56	i	j	819.96	1	1000	1000	1	0
002	1	53	P	P	d	953.08	1	2	56	8	24	i	j	601.16	1	100	100	1	0
002	1	54	P	P	d	669.77	1	3	56	7	24	i	j	820.56	1	1000	100	0	0
002	1	55	N	N	f	702.95	0	4	24	9	56	c	n	2338.65	1	1000	1000	1	0
002	1	56	P	P	d	1037.07	1	9	24	3	56	i	n	1504.01	1	100	100	1	0
002	1	57	N	N	f	567.81	0	2	56	9	24	i	n	1485.11	1	1000	1000	1	0
002	1	58	N	N	f	636.4	0	3	56	8	24	i	n	684.73	1	100	100	0	0
002	1	59	P	P	d	552.94	1	9	24	4	56	i	n	920.1	1	1000	1000	1	0
002	1	60	P	P	d	1169.96	1	3	56	9	24	i	j	536.21	1	1000	1000	0	0
002	1	61	N	N	f	770.29	0	4	56	7	24	i	n	853.14	1	100	1000	1	0
002	1	62	N	N	f	3706.07	0	2	56	7	24	i	n	1320.32	1	1000	1000	0	0
002	1	63	N	N	f	536.29	0	9	56	3	24	c	j	1937.94	1	1000	100	0	0
002	1	64	P	P	d	469.75	1	2	24	9	56	c	n	769.82	1	100	1000	1	0
002	1	65	P	P	d	570.26	1	4	56	7	24	i	j	501.37	1	100	1000	0	0
002	2	1	N	N	f	3506.45	0	8	24	2	56	i	j	1638.16	1	1000	1000	-1	0
002	2	2	P	P	d	1471.39	1	4	24	8	56	c	n	753.0	1	100	1000	1	0
002	2	3	N	N	f	968.33	0	8	56	3	24	c	j	1670.94	1	1000	1000	1	0
002	2	4	N	N	f	670.11	0	2	24	7	56	c	n	2005.04	1	100	1000	0	0
002	2	5	P	P	d	869.82	1	4	24	8	56	c	n	1236.95	1	100	100	1	0
002	2	6	P	P	d	535.81	1	3	56	8	24	i	j	1821.19	1	1000	1000	0	0
002	2	7	N	N	f	369.33	0	9	56	4	24	c	j	619.51	1	1000	100	1	0
002	2	8	P	P	d	753.17	1	7	24	3	56	i	n	1820.99	1	100	1000	1	0
002	2	9	P	P	d	3522.71	1	4	24	8	56	c	n	1070.74	1	1000	1000	0	0
002	2	10	N	N	f	1337.12	0	3	56	9	24	i	n	1421.45	1	100	100	1	0
002	2	11	P	P	d	1020.09	1	8	24	2	56	i	n	1318.75	1	100	100	1	0
002	2	12	P	P	d	1053.49	1	4	56	8	24	i	j	1302.29	1	100	1000	0	0
002	2	13	N	N	f	619.58	0	3	24	7	56	c	n	853.6	1	1000	1000	1	0
002	2	14	P	P	d	986.8	1	7	24	2	56	i	n	1151.62	1	1000	100	1	0
002	2	15	P	P	d	1020.17	1	4	24	7	56	c	n	1019.81	1	100	100	0	0
002	2	16	P	P	d	1287.16	1	8	56	2	24	c	j	751.11	1	1000	100	0	0
002	2	17	P	P	d	2171.3	1	3	24	7	56	c	n	1454.84	1	1000	100	0	0
002	2	18	N	N	f	969.32	0	9	24	2	56	i	j	1571.23	1	1000	1000	1	0
002	2	19	N	N	f	636.34	0	3	56	8	24	i	n	736.54	1	100	1000	0	0
002	2	20	P	P	d	903.55	1	4	56	8	24	i	j	1420.86	1	1000	100	1	0
002	2	21	N	N	f	619.92	0	7	56	2	24	c	j	1303.89	1	100	1000	1	0
002	2	22	N	N	f	669.98	0	9	24	3	56	i	j	1738.18	1	100	100	0	0
002	2	23	N	N	f	652.6	0	2	24	7	56	c	n	652.54	1	1000	100	0	0
002	2	24	P	P	d	403.05	1	4	24	9	56	c	n	652.29	1	1000	100	1	0
002	2	25	N	N	f	585.92	0	3	24	7	56	c	n	1786.13	1	100	1000	1	0
002	2	26	N	N	f	636.56	0	8	56	4	24	c	j	653.04	1	100	1000	0	0
002	2	27	N	N	f	1152.9	0	9	24	2	56	i	j	720.25	1	1000	100	0	0
002	2	28	P	P	d	669.79	1	8	24	4	56	i	n	486.82	1	1000	1000	1	0
002	2	29	P	P	d	502.48	1	8	56	2	24	c	j	586.49	1	1000	1000	0	0
002	2	30	P	P	d	970.99	1	4	56	9	24	i	j	686.84	1	100	100	0	0
002	2	31	P	P	d	1070.04	1	9	24	3	56	i	n	670.24	1	100	100	0	0
002	2	32	N	N	f	1086.92	0	9	24	2	56	i	j	803.62	1	1000	100	1	0
002	2	33	N	N	f	1353.75	0	3	56	7	24	i	n	1103.66	1	1000	100	0	0
002	2	34	P	P	d	719.99	1	8	56	2	24	c	j	500.94	1	100	100	1	0
002	2	35	N	N	f	352.76	0	3	24	7	56	c	n	1120.87	1	1000	100	1	0
002	2	36	N	N	f	619.32	0	4	24	9	56	c	n	1335.0	1	1000	1000	0	0
002	2	37	P	P	d	4657.11	1	3	56	8	24	i	j	3973.95	1	100	100	1	0
002	2	38	N	N	f	1053.69	0	8	24	4	56	i	j	1436.77	1	100	1000	1	0
002	2	39	P	P	d	937.19	1	3	56	7	24	i	j	1703.6	1	100	1000	1	0
002	2	40	N	N	f	1804.57	0	2	24	8	56	c	n	1570.84	1	100	100	1	0
002	2	41	N	N	f	836.45	0	9	56	4	24	c	j	1036.97	1	100	100	0	0
002	2	42	P	P	d	1720.84	1	3	24	9	56	c	n	1470.6	1	1000	1000	1	0
002	2	43	P	P	d	869.46	1	2	56	7	24	i	j	670.21	1	1000	100	0	0
002	2	44	N	N	f	853.23	0	3	56	9	24	i	j	1437.68	0	1000	100	1	0
002	2	45	N	N	d	803.05	0	9	56	2	24	c	j	2387.61	1	1000	100	0	1
002	2	46	N	N	f	953.39	0	3	56	7	24	i	n	1637.98	1	100	100	0	0
002	2	47	N	N	f	5058.08	0	7	56	4	24	c	j	1802.92	1	1000	1000	0	0
002	2	48	N	N	f	4875.08	0	9	24	3	56	i	j	3623.65	1	1000	1000	0	0
002	2	49	N	N	f	603.87	0	4	24	7	56	c	n	4307.29	1	100	100	0	0
002	2	50	P	P	d	903.38	1	8	56	2	24	c	j	535.65	1	100	1000	1	0
002	2	51	P	P	d	836.74	1	9	24	4	56	i	n	920.84	1	100	1000	0	0
002	2	52	P	P	d	1368.62	1	9	24	2	56	i	n	719.99	1	1000	100	0	0
002	2	53	N	N	f	636.37	0	8	56	3	24	c	j	670.07	1	100	100	1	0
002	2	54	N	N	f	569.79	0	8	24	2	56	i	j	1438.12	1	100	1000	0	0
002	2	55	P	P	d	853.76	1	7	56	4	24	c	j	851.52	1	1000	100	1	0
002	2	56	N	N	f	586.56	0	3	56	8	24	i	n	619.31	1	100	1000	1	0
002	2	57	P	P	d	1153.81	1	8	56	4	24	c	j	1820.61	1	1000	1000	1	0
002	2	58	N	N	f	536.39	0	9	24	2	56	i	j	634.79	1	100	100	1	0
002	2	59	N	N	f	4123.91	0	3	56	7	24	i	n	1536.67	1	1000	1000	0	0
002	2	60	P	P	d	3439.72	1	4	56	9	24	i	j	503.41	1	1000	1000	1	0
002	2	61	P	P	d	518.89	1	3	24	8	56	c	n	569.78	1	100	1000	0	0
002	2	62	P	P	d	385.1	1	7	24	4	56	i	n	653.31	1	1000	1000	0	0
002	2	63	P	P	d	703.19	1	8	56	3	24	c	j	653.84	1	100	1000	0	0
002	2	64	P	P	d	636.83	1	7	56	2	24	c	j	619.47	1	100	100	0	0
002	2	65	N	N	d	486.58	0	4	56	7	24	i	n	1687.78	1	1000	1000	1	0
002	3	1	P	P	d	786.21	1	3	56	8	24	i	j	3790.49	1	100	100	-1	0
002	3	2	N	N	f	1854.51	0	7	24	2	56	i	j	1837.27	1	100	1000	1	0
002	3	3	N	N	f	1237.25	0	4	24	9	56	c	j	3290.11	0	100	100	0	0
002	3	4	N	N	f	1920.88	0	3	24	9	56	c	n	1371.29	1	1000	100	0	1
002	3	5	N	N	f	536.26	0	9	24	2	56	i	j	2052.42	1	100	1000	0	0
002	3	6	N	N	d	1370.71	0	8	56	3	24	c	j	1571.07	1	100	1000	0	0
002	3	7	N	N	f	586.3	0	8	24	4	56	i	j	1336.93	1	1000	1000	0	0
002	3	8	N	N	f	719.68	0	2	56	8	24	i	n	635.98	1	100	1000	0	0
002	3	9	P	P	d	903.44	1	3	24	8	56	c	n	1237.64	1	1000	1000	1	0
002	3	10	N	N	f	2638.3	0	4	24	7	56	c	n	753.71	1	1000	1000	1	0
002	3	11	P	P	d	3456.26	1	3	56	7	24	i	j	1237.26	1	100	1000	1	0
002	3	12	P	P	d	1236.14	1	9	56	4	24	c	j	1604.59	1	1000	100	0	0
002	3	13	N	N	f	953.46	0	8	56	3	24	c	j	1036.71	1	100	1000	1	0
002	3	14	P	P	d	1254.08	1	9	24	4	56	i	n	785.9	1	1000	100	1	0
002	3	15	P	P	d	703.27	1	2	56	8	24	i	j	636.68	1	100	100	0	0
002	3	16	P	P	d	820.06	1	3	24	7	56	c	n	586.73	1	1000	1000	0	0
002	3	17	N	N	f	1003.78	0	2	24	7	56	c	n	1403.5	1	100	100	1	0
002	3	18	N	N	f	986.67	0	4	56	7	24	i	n	3055.76	1	1000	1000	0	0
002	3	19	P	P	d	1053.44	1	3	56	8	24	i	j	952.97	1	1000	100	1	0
002	3	20	P	P	d	786.9	1	7	24	2	56	i	n	719.94	1	100	1000	0	0
002	3	21	P	P	d	853.56	1	3	56	9	24	i	j	670.45	1	1000	1000	0	0
002	3	22	P	P	d	1552.06	1	9	24	2	56	i	n	1204.17	1	1000	100	0	0
002	3	23	N	N	f	586.24	0	3	56	7	24	i	n	752.67	1	1000	1000	1	0
002	3	24	N	N	f	6175.84	0	2	56	7	24	i	n	1470.51	1	1000	100	0	0
002	3	25	P	P	f	553.55	1	9	24	4	56	i	n	1570.74	1	100	1000	1	0
002	3	26	P	P	d	1353.1	1	3	24	9	56	c	n	837.07	1	100	1000	0	0
002	3	27	P	P	d	969.64	1	9	56	2	24	c	j	587.34	1	100	1000	0	0
002	3	28	N	N	f	1020.81	0	4	56	7	24	i	n	1120.14	1	100	100	1	0
002	3	29	P	P	d	652.93	1	2	56	9	24	i	j	767.89	1	100	100	1	0
002	3	30	P	P	f	586.62	1	9	56	4	24	c	j	1621.6	1	100	100	0	0
002	3	31	P	P	d	1504.04	1	3	56	9	24	i	j	3106.35	1	1000	100	0	0
002	3	32	N	N	f	569.45	0	7	24	4	56	i	j	1453.72	1	1000	1000	1	0
002	3	33	P	P	d	836.94	1	7	24	2	56	i	n	720.41	1	100	100	1	0
002	3	34	N	N	f	1203.58	0	7	56	4	24	c	j	2088.68	1	100	100	1	0
002	3	35	N	N	f	1103.17	0	8	24	3	56	i	j	1120.35	1	1000	100	0	0
002	3	36	N	N	f	870.07	0	9	56	2	24	c	j	1769.03	1	1000	100	0	0
002	3	37	P	P	d	585.93	1	9	56	4	24	c	j	636.73	1	100	100	1	0
002	3	38	P	P	d	802.96	1	7	24	3	56	i	n	2354.64	1	1000	1000	0	0
002	3	39	N	N	f	1253.87	0	9	24	2	56	i	j	1721.5	1	100	100	1	0
002	3	40	P	P	d	1220.2	1	3	56	9	24	i	j	937.22	1	1000	1000	1	0
002	3	41	P	P	d	1103.48	1	2	56	7	24	i	j	587.04	1	100	1000	0	0
002	3	42	P	P	d	6542.46	1	8	56	4	24	c	j	686.57	1	1000	1000	0	0
002	3	43	P	P	d	702.49	1	7	24	2	56	i	n	937.24	1	100	100	0	0
002	3	44	N	N	f	569.79	0	3	24	8	56	c	n	587.26	1	100	1000	1	0
002	3	45	P	P	d	635.92	1	2	24	7	56	c	n	703.1	1	100	1000	1	0
002	3	46	N	N	f	870.25	0	8	56	3	24	c	j	1352.39	1	1000	100	1	0
002	3	47	N	N	f	836.72	0	8	56	4	24	c	j	4457.63	1	1000	1000	0	0
002	3	48	N	N	f	686.44	0	7	56	3	24	c	j	553.0	1	100	100	0	0
002	3	49	N	N	f	1153.43	0	4	24	9	56	c	n	1320.46	1	1000	1000	0	0
002	3	50	N	N	f	1086.73	0	9	24	3	56	i	j	1770.79	1	100	100	0	0
002	3	51	P	P	d	502.68	1	9	56	2	24	c	j	452.33	1	100	1000	1	0
002	3	52	N	N	f	853.51	0	4	56	8	24	i	n	869.6	1	100	1000	1	0
002	3	53	P	P	d	920.15	1	2	24	8	56	c	n	803.81	1	1000	100	1	0
002	3	54	N	N	f	869.9	0	9	56	4	24	c	j	3055.98	1	1000	1000	1	0
002	3	55	N	N	f	886.37	0	2	56	7	24	i	n	820.16	1	100	100	0	0
002	3	56	P	P	d	2071.57	1	7	56	3	24	c	j	619.9	1	1000	1000	1	0
002	3	57	P	P	d	820.04	1	2	24	8	56	c	n	1270.85	1	1000	100	0	0
002	3	58	N	N	f	2204.91	0	3	24	9	56	c	n	1121.1	1	1000	100	1	0
002	3	59	P	P	d	719.9	1	4	24	9	56	c	n	786.38	1	100	100	1	0
002	3	60	N	N	f	3288.68	0	9	24	2	56	i	j	2438.69	1	1000	100	1	0
002	3	61	N	N	f	1036.62	0	4	24	9	56	c	n	819.33	1	100	1000	0	0
002	3	62	P	P	d	1470.5	1	7	56	2	24	c	j	970.35	1	1000	100	1	0
002	3	63	P	P	d	736.74	1	4	24	9	56	c	n	636.67	1	100	100	0	0
002	3	64	N	N	f	1353.71	0	2	56	7	24	i	n	1337.58	1	1000	100	1	0
002	3	65	P	P	d	753.0	1	9	24	4	56	i	n	1068.54	1	1000	1000	1	0
002	4	1	P	P	d	669.39	1	9	56	4	24	c	j	1571.76	1	1000	100	-1	0
002	4	2	N	N	f	569.92	0	9	56	3	24	c	j	1168.92	1	1000	1000	1	0
002	4	3	P	P	d	703.34	1	9	24	4	56	i	n	886.92	1	1000	100	1	0
002	4	4	P	P	d	1337.2	1	3	56	9	24	i	j	919.94	1	1000	100	0	0
002	4	5	P	P	d	453.12	1	2	24	9	56	c	n	619.93	1	1000	1000	0	0
002	4	6	P	P	d	903.42	1	7	56	3	24	c	j	503.04	1	100	1000	0	0
002	4	7	N	N	f	1086.95	0	2	56	9	24	i	n	586.11	1	1000	1000	1	0
002	4	8	P	P	d	1753.83	1	4	56	7	24	i	j	2788.75	1	100	1000	1	0
002	4	9	P	P	d	752.96	1	3	56	9	24	i	j	703.86	1	100	100	0	0
002	4	10	N	N	f	1403.96	0	7	24	4	56	i	j	1404.56	1	1000	100	1	0
002	4	11	P	P	d	519.66	1	2	24	9	56	c	n	569.51	1	1000	1000	1	0
002	4	12	P	P	d	686.62	1	9	24	3	56	i	n	719.91	1	100	1000	0	0
002	4	13	N	N	f	552.52	0	4	24	7	56	c	n	1137.13	1	1000	100	1	0
002	4	14	N	N	f	836.69	0	7	24	3	56	i	j	903.97	1	100	100	0	0
002	4	15	N	N	f	1253.84	0	8	56	4	24	c	j	668.07	1	100	100	0	0
002	4	16	N	N	f	567.62	0	3	24	8	56	c	n	1120.7	1	1000	100	0	0
002	4	17	N	N	f	503.01	0	9	56	2	24	c	j	636.4	1	1000	1000	0	0
002	4	18	P	P	d	936.82	1	9	56	3	24	c	j	419.44	1	100	1000	1	0
002	4	19	P	P	d	585.94	1	4	24	9	56	c	n	619.7	1	100	1000	0	0
002	4	20	N	N	f	986.66	0	3	56	8	24	i	n	1003.92	1	100	1000	1	0
002	4	21	N	N	f	552.26	0	9	56	4	24	c	j	570.36	1	100	1000	0	0
002	4	22	P	P	d	703.23	1	9	56	3	24	c	j	685.61	1	1000	100	1	0
002	4	23	P	P	d	484.38	1	4	56	9	24	i	j	687.1	1	1000	1000	0	0
002	4	24	N	N	f	435.78	0	7	56	3	24	c	j	803.07	1	1000	100	1	0
002	4	25	N	N	f	636.82	0	7	24	4	56	i	j	720.0	1	100	1000	0	0
002	4	26	P	P	d	701.34	1	2	56	8	24	i	n	870.5	0	100	100	1	0
002	4	27	N	N	f	619.73	0	3	24	9	56	c	j	1053.55	0	100	100	1	1
002	4	28	N	N	f	1604.12	0	4	56	8	24	i	n	1554.31	1	100	1000	0	1
002	4	29	N	N	f	653.23	0	3	56	9	24	i	n	1037.2	1	1000	100	0	0
002	4	30	P	P	d	302.9	1	7	56	2	24	c	j	520.01	1	1000	1000	1	0
002	4	31	P	P	d	636.13	1	8	24	4	56	i	n	686.28	1	100	100	0	0
002	4	32	N	N	f	653.32	0	9	56	3	24	c	j	1020.06	1	100	100	1	0
002	4	33	N	N	f	953.24	0	4	24	7	56	c	n	736.5	1	1000	1000	0	0
002	4	34	N	N	f	568.96	0	3	56	9	24	i	n	669.45	1	1000	1000	0	0
002	4	35	N	N	f	652.43	0	7	56	2	24	c	j	1051.72	1	1000	100	0	0
002	4	36	P	P	f	803.46	1	9	24	4	56	i	n	569.85	1	100	1000	1	0
002	4	37	P	P	d	870.05	1	8	24	2	56	i	n	1120.82	1	1000	1000	0	0
002	4	38	P	P	d	536.62	1	4	24	9	56	c	n	1270.92	1	100	100	0	0
002	4	39	P	P	d	519.52	1	2	56	7	24	i	j	602.95	1	100	1000	0	0
002	4	40	N	N	f	1237.16	0	4	24	8	56	c	n	7044.05	1	1000	1000	1	0
002	4	41	P	P	d	1370.63	1	3	24	9	56	c	n	869.92	1	1000	100	1	0
002	4	42	N	N	f	1136.53	0	8	24	4	56	i	j	753.17	1	100	100	1	0
002	4	43	P	P	d	1054.17	1	3	24	8	56	c	n	1120.25	1	100	1000	1	0
002	4	44	P	P	d	819.8	1	9	56	4	24	c	j	719.84	1	100	100	0	0
002	4	45	N	N	f	586.48	0	3	24	8	56	c	n	553.52	1	100	1000	1	0
002	4	46	P	P	d	820.07	1	9	56	2	24	c	j	686.39	1	100	100	1	0
002	4	47	N	N	f	536.59	0	3	56	7	24	i	n	1521.32	1	100	100	1	0
002	4	48	P	P	d	836.92	1	9	24	4	56	i	j	986.99	0	100	100	1	0
002	4	49	N	N	f	569.94	0	3	56	9	24	i	n	1688.65	1	1000	100	1	1
002	4	50	N	N	f	652.92	0	4	24	7	56	c	n	586.67	1	100	100	0	0
002	4	51	N	N	f	419.47	0	9	24	3	56	i	j	737.02	1	1000	100	0	0
002	4	52	P	P	d	503.44	1	4	56	8	24	i	j	919.8	1	1000	100	1	0
002	4	53	P	P	d	619.25	1	8	56	2	24	c	j	617.51	1	1000	100	0	0
002	4	54	N	N	f	802.79	0	8	56	3	24	c	j	1170.5	1	100	1000	1	0
002	4	55	N	N	f	586.23	0	8	24	4	56	i	j	1137.35	1	1000	1000	0	0
002	4	56	N	N	f	553.14	0	3	24	9	56	c	n	801.78	1	100	1000	0	0
002	4	57	N	N	f	1454.22	0	4	56	8	24	i	n	886.62	1	100	100	0	0
002	4	58	P	P	d	887.06	1	3	56	7	24	i	j	2171.84	1	1000	1000	1	0
002	4	59	P	P	d	569.08	1	7	56	4	24	c	j	936.68	1	1000	1000	0	0
002	4	60	N	N	f	970.27	0	7	24	3	56	i	j	2555.13	1	1000	1000	1	0
002	4	61	P	P	d	553.15	1	8	24	4	56	i	n	1654.97	1	1000	1000	1	0
002	4	62	N	N	f	1303.64	0	9	24	3	56	i	j	1353.79	1	100	1000	1	0
002	4	63	P	P	d	1203.52	1	2	24	9	56	c	n	903.3	1	100	100	1	0
002	4	64	P	P	d	603.05	1	9	24	4	56	i	n	1103.83	1	1000	100	0	0
002	4	65	P	P	d	602.65	1	3	24	7	56	c	n	1170.18	1	1000	100	0	0
002	5	1	P	P	d	1453.38	1	3	24	8	56	c	n	803.2	1	100	1000	-1	0
002	5	2	N	N	f	719.89	0	4	56	7	24	i	n	834.57	1	1000	100	1	0
002	5	3	N	N	f	669.19	0	2	56	7	24	i	n	953.35	1	1000	100	0	0
002	5	4	N	N	f	552.62	0	3	56	8	24	i	n	669.74	1	1000	1000	0	0
002	5	5	N	N	f	536.27	0	2	56	7	24	i	n	954.36	1	100	1000	0	0
002	5	6	N	N	f	536.3	0	7	56	3	24	c	j	703.2	1	1000	1000	0	0
002	5	7	N	N	f	386.16	0	4	24	9	56	c	n	620.19	1	1000	1000	0	0
002	5	8	N	N	f	836.5	0	3	56	8	24	i	n	720.44	1	100	100	0	0
002	5	9	P	P	d	686.93	1	9	24	4	56	i	n	837.47	1	1000	100	1	0
002	5	10	P	P	d	569.34	1	8	56	2	24	c	j	686.61	1	100	1000	0	0
002	5	11	P	P	d	436.26	1	4	24	9	56	c	n	670.09	1	1000	100	0	0
002	5	12	P	P	d	619.25	1	3	56	9	24	i	j	817.57	1	1000	100	0	0
002	5	13	N	N	f	602.98	0	2	56	9	24	i	n	1037.35	1	1000	1000	1	0
002	5	14	P	P	d	502.24	1	8	24	4	56	i	n	453.53	1	1000	1000	1	0
002	5	15	P	P	d	619.49	1	3	24	8	56	c	n	569.93	1	100	1000	0	0
002	5	16	P	P	d	535.81	1	2	56	8	24	i	j	601.32	1	100	1000	0	0
002	5	17	N	N	f	669.8	0	8	24	4	56	i	j	1120.47	1	100	1000	1	0
002	5	18	P	P	d	719.99	1	9	56	2	24	c	j	653.25	1	1000	100	1	0
002	5	19	P	P	d	519.33	1	4	56	9	24	i	j	552.65	1	100	100	0	0
002	5	20	N	N	f	519.65	0	7	24	3	56	i	j	670.47	1	1000	100	1	0
002	5	21	P	P	d	586.6	1	4	24	8	56	c	n	1003.25	1	1000	1000	1	0
002	5	22	N	N	f	585.79	0	8	24	3	56	i	j	703.34	1	100	100	1	0
002	5	23	N	N	f	669.76	0	4	24	9	56	c	n	518.76	1	100	1000	0	0
002	5	24	N	N	f	603.22	0	9	24	2	56	i	j	653.45	1	1000	100	0	0
002	5	25	N	N	f	569.79	0	7	24	4	56	i	j	753.42	1	100	1000	0	0
002	5	26	N	N	f	486.08	0	2	24	7	56	c	n	669.77	1	100	100	0	0
002	5	27	P	P	d	602.77	1	3	24	8	56	c	n	686.87	1	100	1000	1	0
002	5	28	N	N	f	569.76	0	7	56	4	24	c	j	853.49	1	100	100	1	0
002	5	29	P	P	d	469.67	1	8	56	3	24	c	j	503.67	1	100	1000	1	0
002	5	30	N	N	f	386.34	0	8	56	4	24	c	j	669.98	1	1000	100	1	0
002	5	31	P	P	d	403.04	1	7	56	3	24	c	j	1370.15	1	1000	1000	1	0
002	5	32	P	P	d	569.84	1	9	24	2	56	i	n	486.7	1	100	1000	0	0
002	5	33	N	N	d	435.9	0	3	24	8	56	c	n	686.38	1	100	1000	1	0
002	5	34	P	P	d	820.27	1	4	56	8	24	i	j	903.59	1	1000	100	1	0
002	5	35	P	P	d	636.15	1	8	56	3	24	c	j	586.04	1	1000	1000	0	0
002	5	36	P	P	d	653.1	1	4	24	8	56	c	n	1086.86	1	100	100	0	0
002	5	37	N	N	f	1688.11	0	2	56	8	24	i	n	1103.95	1	100	100	1	0
002	5	38	N	N	f	603.13	0	7	56	4	24	c	j	869.88	1	100	1000	0	0
002	5	39	P	P	d	736.99	1	2	56	9	24	i	j	1220.12	1	1000	1000	1	0
002	5	40	N	N	f	1187.18	0	4	24	9	56	c	n	1203.81	1	1000	100	1	0
002	5	41	P	P	d	1804.33	1	2	56	9	24	i	j	819.56	1	100	100	1	0
002	5	42	P	P	d	918.21	1	3	24	7	56	c	n	987.25	1	1000	1000	0	0
002	5	43	N	N	f	870.23	0	4	56	8	24	i	n	2672.02	1	100	1000	1	0
002	5	44	N	N	f	469.86	0	8	56	3	24	c	j	920.45	1	1000	100	0	0
002	5	45	N	N	f	1337.08	0	9	24	4	56	i	j	2238.67	1	1000	1000	0	0
002	5	46	P	P	d	4323.81	1	2	24	9	56	c	n	1537.53	1	100	100	1	0
002	5	47	P	P	d	719.44	1	8	56	4	24	c	j	519.08	1	100	100	0	0
002	5	48	N	N	f	619.84	0	9	56	2	24	c	n	2321.69	0	1000	1000	1	0
002	5	49	P	P	d	624.49	1	4	24	8	56	c	n	2122.4	1	1000	100	1	1
002	5	50	P	P	d	420.65	1	8	24	3	56	i	n	838.07	1	1000	100	0	0
002	5	51	P	P	d	537.46	1	9	24	4	56	i	n	570.28	1	100	100	0	0
002	5	52	N	N	f	520.39	0	2	24	8	56	c	n	505.04	1	1000	1000	1	0
002	5	53	P	P	d	537.25	1	8	24	3	56	i	n	571.22	1	100	1000	1	0
002	5	54	P	P	d	536.87	1	8	56	2	24	c	j	604.5	1	1000	100	0	0
002	5	55	P	P	d	470.71	1	8	24	4	56	i	n	487.24	1	1000	1000	0	0
002	5	56	N	N	f	570.98	0	7	56	3	24	c	j	587.18	1	100	1000	1	0
002	5	57	P	P	d	634.62	1	7	56	4	24	c	j	871.91	1	100	100	1	0
002	5	58	N	N	f	721.08	0	7	24	2	56	i	j	871.47	1	1000	1000	1	0
002	5	59	N	N	f	553.64	0	3	24	9	56	c	n	1305.12	1	1000	100	0	0
002	5	60	P	P	d	770.16	1	4	56	7	24	i	j	554.58	1	100	1000	1	0
002	5	61	P	P	d	6476.96	1	2	56	9	24	i	j	738.49	1	1000	1000	0	0
002	5	62	N	N	f	620.92	0	4	24	9	56	c	n	1638.33	1	100	100	1	0
002	5	63	N	N	f	737.86	0	8	56	2	24	c	j	888.21	1	100	100	0	0
002	5	64	N	N	f	621.21	0	8	24	3	56	i	j	770.97	1	100	100	0	0
002	5	65	P	P	d	654.61	1	9	24	4	56	i	n	604.67	1	100	100	1	0
002	6	1	N	N	f	587.37	0	7	24	2	56	i	j	834.83	1	1000	1000	-1	0
002	6	2	P	P	d	587.09	1	7	56	3	24	c	j	938.65	1	100	100	1	0
002	6	3	N	N	f	504.22	0	2	56	8	24	i	n	671.02	1	1000	100	1	0
002	6	4	N	N	f	671.28	0	4	24	8	56	c	n	487.0	1	100	100	0	0
002	6	5	P	P	d	837.89	1	9	24	3	56	i	n	754.95	1	1000	100	1	0
002	6	6	P	P	d	587.14	1	8	24	2	56	i	n	705.02	1	100	100	0	0
002	6	7	P	P	d	537.34	1	8	56	3	24	c	j	471.1	1	1000	1000	0	0
002	6	8	N	N	f	620.96	0	9	24	2	56	i	j	938.47	1	1000	100	1	0
002	6	9	N	N	f	604.05	0	3	24	9	56	c	n	871.06	1	100	1000	0	0
002	6	10	P	P	d	838.02	1	4	24	8	56	c	n	437.2	1	100	1000	1	0
002	6	11	P	P	d	370.71	1	2	24	9	56	c	n	450.76	1	1000	1000	0	0
002	6	12	P	P	d	654.26	1	4	24	7	56	c	n	604.29	1	100	100	0	0
002	6	13	N	N	f	571.0	0	8	24	3	56	i	j	720.87	1	100	1000	1	0
002	6	14	N	N	f	487.54	0	2	56	9	24	i	n	955.08	1	1000	100	0	0
002	6	15	N	N	f	538.01	0	4	56	9	24	i	n	671.41	1	100	1000	0	0
002	6	16	N	N	f	820.94	0	8	24	2	56	i	j	687.96	1	1000	100	0	0
002	6	17	P	P	d	671.39	1	3	56	9	24	i	j	720.68	1	100	100	1	0
002	6	18	P	P	d	553.91	1	8	56	2	24	c	j	704.83	1	100	1000	0	0
002	6	19	N	N	f	1371.9	0	8	56	4	24	c	j	1271.22	1	1000	100	1	0
002	6	20	P	P	d	1471.73	1	9	56	3	24	c	j	721.37	1	1000	100	1	0
002	6	21	N	N	f	570.29	0	2	24	8	56	c	n	520.79	1	100	1000	1	0
002	6	22	N	N	d	753.97	0	9	24	3	56	i	j	1338.88	1	100	100	0	0
002	6	23	N	N	f	554.4	0	4	56	9	24	i	n	1622.48	1	1000	1000	0	0
002	6	24	P	P	d	604.52	1	3	56	7	24	i	n	1121.89	0	1000	100	1	0
002	6	25	N	N	f	737.81	0	9	24	2	56	i	n	1070.6	0	100	100	1	1
002	6	26	P	P	d	1305.18	1	3	24	7	56	c	n	654.55	1	1000	100	1	1
002	6	27	P	P	d	753.84	1	9	24	2	56	i	n	1304.96	1	1000	100	0	0
002	6	28	N	N	f	720.94	0	8	56	4	24	c	j	771.12	1	100	1000	1	0
002	6	29	P	P	d	504.06	1	2	24	8	56	c	n	838.06	1	100	100	1	0
002	6	30	N	N	f	420.26	0	8	24	4	56	i	j	704.94	1	1000	1000	1	0
002	6	31	P	P	d	503.82	1	9	24	3	56	i	n	437.28	1	1000	1000	1	0
002	6	32	P	P	d	487.5	1	9	56	4	24	c	j	921.81	1	1000	100	0	0
002	6	33	N	N	f	570.87	0	2	56	9	24	i	n	1856.42	1	1000	1000	1	0
002	6	34	N	N	f	470.93	0	7	56	3	24	c	j	654.68	1	100	1000	0	0
002	6	35	N	N	f	1722.39	0	4	24	8	56	c	n	905.14	1	1000	1000	0	0
002	6	36	P	P	f	721.25	1	2	56	8	24	i	j	484.3	1	100	1000	1	0
002	6	37	N	N	f	1121.47	0	3	56	8	24	i	n	1455.79	1	100	1000	1	0
002	6	38	P	P	d	337.15	1	4	56	7	24	i	j	971.77	1	1000	1000	1	0
002	6	39	P	P	d	654.15	1	9	24	3	56	i	n	3657.48	1	100	1000	0	0
002	6	40	P	P	d	571.23	1	4	24	9	56	c	n	671.74	1	100	1000	0	0
002	6	41	P	P	d	721.17	1	3	56	9	24	i	j	1572.26	1	100	1000	0	0
002	6	42	N	N	f	1788.89	0	2	24	9	56	c	n	1255.66	1	1000	1000	1	0
002	6	43	P	P	d	587.52	1	9	56	4	24	c	j	570.76	1	100	1000	1	0
002	6	44	P	P	d	1485.39	1	7	56	3	24	c	j	1605.6	1	100	100	0	0
002	6	45	P	P	d	1622.25	1	8	24	4	56	i	n	871.08	1	1000	1000	0	0
002	6	46	N	N	f	470.6	0	3	24	9	56	c	n	671.11	1	100	100	1	0
002	6	47	N	N	f	688.2	0	9	24	4	56	i	j	1289.07	1	100	1000	0	0
002	6	48	N	N	f	955.01	0	3	24	8	56	c	n	1271.93	1	1000	100	0	0
002	6	49	P	P	d	4692.38	1	8	24	4	56	i	n	1405.54	1	100	1000	1	0
002	6	50	P	P	d	5226.01	1	3	56	9	24	i	j	1071.27	1	1000	1000	0	0
002	6	51	N	N	f	1021.62	0	4	24	7	56	c	n	1672.21	1	1000	100	1	0
002	6	52	N	N	f	1605.41	0	9	24	3	56	i	j	887.57	1	1000	1000	0	0
002	6	53	N	N	f	1154.29	0	7	56	4	24	c	j	1334.93	1	1000	1000	0	0
002	6	54	P	P	d	1505.27	1	8	24	2	56	i	n	1969.15	1	100	100	1	0
002	6	55	P	P	d	737.79	1	4	56	7	24	i	j	1401.45	1	1000	100	0	0
002	6	56	P	P	d	787.48	1	3	24	7	56	c	n	637.85	1	1000	100	0	0
002	6	57	P	P	d	654.35	1	4	56	8	24	i	j	554.85	1	100	100	0	0
002	6	58	N	N	f	938.03	0	9	56	2	24	c	j	1003.71	1	1000	1000	1	0
002	6	59	P	P	d	821.18	1	7	56	4	24	c	j	921.35	1	1000	1000	1	0
002	6	60	N	N	f	553.59	0	8	56	3	24	c	j	1088.14	1	100	100	1	0
002	6	61	P	P	d	771.22	1	2	24	9	56	c	n	1238.7	1	1000	1000	1	0
002	6	62	N	N	f	637.24	0	3	56	9	24	i	n	1270.83	1	100	100	1	0
002	6	63	N	N	f	553.14	0	4	56	9	24	i	n	704.87	1	100	100	0	0
002	6	64	N	N	f	454.47	0	7	56	2	24	c	j	955.2	1	1000	100	0	0
002	6	65	N	N	f	821.34	0	8	56	3	24	c	j	1168.64	1	100	100	0	0
