subj	block	trial	task_cue	task	choice_resp	choiceRT	choice_acc	topnum	topsize	botnum	botsize	cong	task_resp	taskRT	task_acc	RSI	CSI	altRep	E1
015	1	1	?	N	d	118.99	NA	4	56	7	24	i	n	737.24	1	1000	100	-1	0
015	1	2	?	P	f	1320.14	NA	2	56	9	24	i	n	520.06	0	100	100	0	0
015	1	3	?	P	f	653.09	NA	7	56	4	24	c	j	419.51	1	1000	100	0	1
015	1	4	?	P	f	669.5	NA	8	24	2	56	i	j	785.92	0	1000	100	0	0
015	1	5	?	P	f	1268.34	NA	3	56	7	24	i	j	419.46	1	100	1000	0	1
015	1	6	?	P	f	19.03	NA	9	24	4	56	i	n	1370.27	1	1000	100	0	0
015	1	7	?	N	d	1186.94	NA	8	56	3	24	c	j	686.62	1	1000	1000	0	0
015	1	8	?	N	d	2088.19	NA	4	56	9	24	i	n	569.56	1	100	1000	0	0
015	1	9	?	N	d	1603.99	NA	8	24	2	56	i	j	603.53	1	100	100	0	0
015	1	10	?	P	f	920.05	NA	7	24	3	56	i	n	736.94	1	100	100	0	0
015	1	11	?	N	d	102.03	NA	7	56	2	24	c	j	801.17	1	1000	100	0	0
015	1	12	?	P	f	753.28	NA	3	24	7	56	c	n	902.86	1	100	100	0	0
015	1	13	?	P	f	602.78	NA	2	24	7	56	c	n	486.52	1	100	1000	0	0
015	1	14	?	N	d	953.31	NA	4	24	9	56	c	n	570.03	1	100	100	0	0
015	1	15	?	N	d	1086.86	NA	3	56	7	24	i	n	653.65	1	100	100	0	0
015	1	16	?	P	f	986.85	NA	8	24	2	56	i	n	419.82	1	100	100	0	0
015	1	17	?	N	d	2.46	NA	7	56	3	24	c	j	670.28	1	1000	1000	0	0
015	1	18	?	P	f	719.61	NA	4	24	9	56	c	n	519.87	1	100	1000	0	0
015	1	19	?	P	f	1770.91	NA	3	24	8	56	c	n	369.42	1	1000	100	0	0
015	1	20	?	P	f	719.56	NA	9	24	4	56	i	j	536.58	0	1000	100	0	0
015	1	21	?	P	f	1220.06	NA	8	56	3	24	c	j	553.17	1	100	100	0	1
015	1	22	?	P	f	186.67	NA	9	24	2	56	i	n	734.21	1	1000	1000	0	0
015	1	23	?	N	d	1170.95	NA	9	56	3	24	c	j	619.4	1	100	100	0	0
015	1	24	?	P	f	119.0	NA	4	24	9	56	c	n	800.84	1	1000	100	0	0
015	1	25	?	N	d	1421.13	NA	7	24	2	56	i	j	1287.56	1	100	100	0	0
015	1	26	?	N	d	185.65	NA	7	56	3	24	c	j	1270.87	1	1000	100	0	0
015	1	27	?	P	f	1003.53	NA	4	24	7	56	c	n	436.95	1	1000	1000	0	0
015	1	28	?	N	d	552.51	NA	3	24	7	56	c	n	636.17	1	1000	100	0	0
015	1	29	?	P	f	1486.93	NA	4	56	7	24	i	j	703.66	1	100	1000	0	0
015	1	30	?	N	d	1020.03	NA	9	24	2	56	i	j	519.38	1	100	1000	0	0
015	1	31	?	N	d	803.26	NA	4	56	9	24	i	n	519.49	1	1000	1000	0	0
015	1	32	?	N	d	1403.82	NA	2	56	9	24	i	n	453.0	1	100	1000	0	0
015	1	33	?	P	f	352.7	NA	7	24	4	56	i	n	717.85	1	1000	100	0	0
015	1	34	?	P	f	569.48	NA	3	24	8	56	c	n	520.38	1	1000	100	0	0
015	1	35	?	N	d	352.77	NA	9	24	4	56	i	j	919.98	1	1000	100	0	0
015	1	36	?	N	d	118.93	NA	7	24	2	56	i	j	703.14	1	1000	100	0	0
015	1	37	?	P	f	169.09	NA	4	56	8	24	i	j	1171.07	1	1000	1000	0	0
015	1	38	?	P	f	970.25	NA	3	24	8	56	c	n	420.18	1	1000	1000	0	0
015	1	39	?	N	d	485.41	NA	8	56	2	24	c	j	520.16	1	1000	1000	0	0
015	1	40	?	N	d	652.49	NA	9	56	4	24	c	j	369.49	1	1000	1000	0	0
015	1	41	?	P	f	1952.42	NA	8	24	2	56	i	n	603.63	1	100	1000	0	0
015	1	42	?	P	f	385.39	NA	7	56	4	24	c	j	452.91	1	1000	100	0	0
015	1	43	?	N	d	1036.86	NA	9	56	3	24	c	j	503.11	1	100	1000	0	0
015	1	44	?	N	d	169.2	NA	7	24	2	56	i	j	570.46	1	1000	1000	0	0
015	1	45	?	P	f	886.65	NA	4	56	9	24	i	j	569.89	1	100	100	0	0
015	1	46	?	N	d	83.83	NA	9	24	2	56	i	j	586.24	1	1000	100	0	0
015	1	47	?	P	f	1169.96	NA	3	24	8	56	c	n	419.74	1	100	1000	0	0
015	1	48	?	N	d	769.62	NA	9	56	2	24	c	j	403.4	1	100	1000	0	0
015	1	49	?	P	f	686.75	NA	9	56	4	24	c	j	352.23	1	100	1000	0	0
015	1	50	?	P	f	269.37	NA	3	56	9	24	i	n	552.99	0	1000	1000	0	0
015	1	51	?	P	f	970.24	NA	2	24	7	56	c	n	603.24	1	100	100	0	1
015	1	52	?	P	f	85.73	NA	3	24	9	56	c	n	386.29	1	1000	1000	0	0
015	1	53	?	N	d	670.67	NA	2	24	9	56	c	n	503.29	1	100	1000	0	0
015	1	54	?	N	d	769.77	NA	3	24	8	56	c	n	503.51	1	100	100	0	0
015	1	55	?	P	f	403.01	NA	9	56	2	24	c	j	402.71	1	100	1000	0	0
015	1	56	?	P	f	1036.39	NA	8	24	4	56	i	n	436.85	1	100	1000	0	0
015	1	57	?	N	d	1754.56	NA	3	24	9	56	c	n	452.42	1	1000	1000	0	0
015	1	58	?	N	d	936.57	NA	4	56	8	24	i	n	686.72	1	100	100	0	0
015	1	59	?	P	f	302.18	NA	9	24	2	56	i	n	520.72	1	1000	1000	0	0
015	1	60	?	P	f	569.36	NA	4	56	9	24	i	j	419.76	1	1000	100	0	0
015	1	61	?	N	d	569.29	NA	9	56	3	24	c	j	503.25	1	100	100	0	0
015	1	62	?	N	d	586.62	NA	4	56	9	24	i	n	703.53	1	1000	1000	0	0
015	1	63	?	P	f	553.17	NA	3	56	9	24	i	j	435.87	1	1000	1000	0	0
015	1	64	?	P	f	1437.26	NA	9	56	4	24	c	j	503.09	1	100	100	0	0
015	1	65	?	P	f	1135.14	NA	2	56	8	24	i	n	470.1	0	100	1000	0	0
015	2	1	?	N	d	836.36	NA	2	56	9	24	i	n	436.07	1	1000	1000	-1	0
015	2	2	?	N	d	502.96	NA	7	56	4	24	c	j	603.09	1	1000	100	0	0
015	2	3	?	P	f	386.32	NA	3	56	7	24	i	j	619.52	1	1000	100	0	0
015	2	4	?	N	d	1486.93	NA	8	24	2	56	i	j	1852.05	1	100	100	0	0
015	2	5	?	P	f	1134.72	NA	4	24	9	56	c	n	402.99	1	1000	1000	0	0
015	2	6	?	P	f	1837.94	NA	3	56	8	24	i	j	1151.51	1	100	100	0	0
015	2	7	?	P	f	2221.54	NA	2	24	9	56	c	n	419.54	1	100	1000	0	0
015	2	8	?	N	d	819.75	NA	3	24	7	56	c	n	987.7	1	100	100	0	0
015	2	9	?	N	d	269.33	NA	4	56	8	24	i	n	468.99	1	1000	1000	0	0
015	2	10	?	N	d	436.27	NA	3	56	9	24	i	n	1287.75	1	1000	100	0	0
015	2	11	?	P	f	2.43	NA	4	56	7	24	i	j	519.47	1	1000	1000	0	0
015	2	12	?	P	f	102.53	NA	8	56	3	24	c	j	486.79	1	1000	100	0	0
015	2	13	?	N	d	1286.72	NA	4	56	8	24	i	n	519.46	1	100	1000	0	0
015	2	14	?	P	f	302.76	NA	8	56	3	24	c	j	352.95	1	1000	1000	0	0
015	2	15	?	N	d	903.17	NA	4	56	9	24	i	n	468.85	1	100	1000	0	0
015	2	16	?	P	f	502.8	NA	3	24	7	56	c	n	402.85	1	1000	1000	0	0
015	2	17	?	P	f	1304.03	NA	9	24	2	56	i	n	903.72	1	100	100	0	0
015	2	18	?	P	f	2.46	NA	3	56	8	24	i	j	819.93	1	1000	100	0	0
015	2	19	?	N	d	719.47	NA	2	56	7	24	i	n	486.76	1	100	1000	0	0
015	2	20	?	N	d	719.7	NA	9	56	4	24	c	j	552.98	1	100	100	0	0
015	2	21	?	N	d	819.85	NA	2	24	7	56	c	n	469.5	1	100	1000	0	0
015	2	22	?	P	f	753.86	NA	3	24	7	56	c	n	587.31	1	100	100	0	0
015	2	23	?	P	f	452.77	NA	2	24	9	56	c	n	418.96	1	1000	100	0	0
015	2	24	?	N	d	152.74	NA	3	56	7	24	i	n	536.38	1	1000	1000	0	0
015	2	25	?	P	f	68.72	NA	7	24	4	56	i	n	570.09	1	1000	100	0	0
015	2	26	?	N	d	485.69	NA	7	24	2	56	i	j	1571.22	1	100	1000	0	0
015	2	27	?	P	f	1937.82	NA	4	56	8	24	i	j	637.21	1	1000	1000	0	0
015	2	28	?	N	d	552.68	NA	3	24	7	56	c	n	520.04	1	1000	100	0	0
015	2	29	?	P	f	435.64	NA	2	56	7	24	i	j	419.58	1	1000	1000	0	0
015	2	30	?	N	d	1018.06	NA	8	24	3	56	i	j	853.32	1	100	1000	0	0
015	2	31	?	P	f	352.94	NA	7	56	4	24	c	j	503.59	1	1000	1000	0	0
015	2	32	?	N	d	135.89	NA	9	24	3	56	i	j	653.55	1	1000	100	0	0
015	2	33	?	N	d	1553.8	NA	9	24	2	56	i	j	402.8	1	100	1000	0	0
015	2	34	?	N	d	1253.81	NA	7	24	3	56	i	j	685.93	1	100	1000	0	0
015	2	35	?	P	f	301.96	NA	4	24	8	56	c	n	619.58	1	1000	100	0	0
015	2	36	?	N	d	418.86	NA	2	24	7	56	c	n	470.17	1	1000	1000	0	0
015	2	37	?	P	f	602.59	NA	8	24	3	56	i	j	503.42	0	1000	100	0	0
015	2	38	?	P	f	653.25	NA	7	56	2	24	c	j	737.14	1	1000	100	0	1
015	2	39	?	N	d	1103.84	NA	8	56	4	24	c	j	486.16	1	100	1000	0	0
015	2	40	?	N	d	1103.42	NA	7	56	3	24	c	j	470.11	1	100	100	0	0
015	2	41	?	P	f	152.28	NA	2	24	7	56	c	n	386.02	1	1000	1000	0	0
015	2	42	?	P	f	653.21	NA	9	56	3	24	c	j	386.33	1	100	1000	0	0
015	2	43	?	N	d	769.49	NA	8	24	4	56	i	j	653.54	1	100	100	0	0
015	2	44	?	P	f	753.02	NA	9	56	2	24	c	j	502.78	1	100	100	0	0
015	2	45	?	N	d	1653.68	NA	8	56	3	24	c	j	486.65	1	1000	100	0	0
015	2	46	?	P	f	870.54	NA	2	56	8	24	i	n	570.6	0	100	100	0	0
015	2	47	?	P	f	369.32	NA	7	24	4	56	i	n	886.58	1	1000	1000	0	1
015	2	48	?	P	f	703.19	NA	9	24	3	56	i	n	601.0	1	100	100	0	0
015	2	49	?	N	d	619.91	NA	4	24	9	56	c	n	652.95	1	100	100	0	0
015	2	50	?	P	f	119.15	NA	7	56	2	24	c	j	336.21	1	1000	1000	0	0
015	2	51	?	N	d	686.63	NA	4	56	7	24	i	n	536.38	1	100	100	0	0
015	2	52	?	P	f	619.72	NA	9	56	2	24	c	j	403.77	1	100	1000	0	0
015	2	53	?	P	f	386.27	NA	7	24	3	56	i	n	619.88	1	1000	1000	0	0
015	2	54	?	P	f	852.49	NA	7	24	2	56	i	n	485.72	1	100	1000	0	0
015	2	55	?	N	d	286.0	NA	3	24	7	56	c	n	503.66	1	1000	100	0	0
015	2	56	?	N	d	68.71	NA	8	24	2	56	i	j	553.57	1	1000	1000	0	0
015	2	57	?	P	f	803.51	NA	9	56	3	24	c	j	569.61	1	100	1000	0	0
015	2	58	?	P	f	353.51	NA	7	24	4	56	i	n	570.27	1	1000	100	0	0
015	2	59	?	N	d	519.59	NA	9	56	2	24	c	j	419.49	1	1000	1000	0	0
015	2	60	?	N	d	402.9	NA	7	24	4	56	i	j	887.35	1	1000	100	0	0
015	2	61	?	P	f	1420.4	NA	2	24	9	56	c	n	419.87	1	100	1000	0	0
015	2	62	?	P	f	1020.35	NA	8	56	3	24	c	j	453.7	1	100	100	0	0
015	2	63	?	P	f	619.07	NA	4	24	7	56	c	n	352.81	1	100	1000	0	0
015	2	64	?	N	d	453.16	NA	3	56	8	24	i	n	553.19	1	100	100	0	0
015	2	65	?	N	d	369.46	NA	4	24	8	56	c	n	1153.6	1	100	100	0	0
015	3	1	?	N	d	1003.45	NA	8	24	4	56	i	j	469.31	1	100	100	-1	0
015	3	2	?	P	f	519.68	NA	8	56	2	24	c	j	402.98	1	1000	1000	0	0
015	3	3	?	N	d	686.76	NA	8	56	3	24	c	j	704.12	1	1000	1000	0	0
015	3	4	?	N	d	652.39	NA	2	56	7	24	i	n	652.78	1	100	100	0	0
015	3	5	?	N	d	68.96	NA	3	24	8	56	c	n	669.64	1	1000	1000	0	0
015	3	6	?	P	f	686.54	NA	2	24	9	56	c	n	469.92	1	100	100	0	0
015	3	7	?	P	f	1253.77	NA	3	56	8	24	i	j	486.11	1	100	100	0	0
015	3	8	?	N	d	1087.2	NA	2	24	9	56	c	n	453.48	1	100	100	0	0
015	3	9	?	N	d	870.11	NA	9	56	3	24	c	j	435.68	1	100	1000	0	0
015	3	10	?	P	f	636.15	NA	4	56	9	24	i	j	402.56	1	1000	1000	0	0
015	3	11	?	P	f	319.51	NA	3	56	9	24	i	j	519.39	1	1000	100	0	0
015	3	12	?	N	d	569.62	NA	9	24	4	56	i	j	553.69	1	1000	1000	0	0
015	3	13	?	P	f	653.27	NA	2	56	8	24	i	j	519.86	1	1000	1000	0	0
015	3	14	?	P	f	1303.55	NA	9	56	3	24	c	j	318.52	1	1000	1000	0	0
015	3	15	?	N	d	568.56	NA	7	24	4	56	i	j	469.65	1	1000	100	0	0
015	3	16	?	N	d	1137.13	NA	3	24	7	56	c	n	551.38	1	100	100	0	0
015	3	17	?	N	d	402.82	NA	9	56	4	24	c	j	419.46	1	1000	100	0	0
015	3	18	?	P	f	352.57	NA	2	24	8	56	c	n	503.07	1	1000	1000	0	0
015	3	19	?	P	f	1604.43	NA	3	24	7	56	c	n	386.08	1	100	1000	0	0
015	3	20	?	N	d	1821.0	NA	4	56	7	24	i	j	619.5	0	100	100	0	0
015	3	21	?	N	d	519.59	NA	7	56	3	24	c	j	553.03	1	1000	100	0	1
015	3	22	?	N	d	1736.99	NA	8	56	4	24	c	j	452.83	1	100	100	0	0
015	3	23	?	N	d	986.99	NA	3	24	7	56	c	n	536.3	1	100	1000	0	0
015	3	24	?	P	f	1003.5	NA	9	56	4	24	c	j	368.84	1	100	1000	0	0
015	3	25	?	P	f	652.9	NA	7	56	2	24	c	j	486.45	1	100	100	0	0
015	3	26	?	N	d	152.75	NA	7	24	3	56	i	j	703.2	1	1000	100	0	0
015	3	27	?	P	f	969.97	NA	7	56	2	24	c	j	468.91	1	100	1000	0	0
015	3	28	?	P	f	1220.39	NA	9	24	3	56	i	n	1219.73	1	100	1000	0	0
015	3	29	?	N	d	236.23	NA	2	24	8	56	c	n	553.17	1	1000	100	0	0
015	3	30	?	N	d	35.7	NA	9	56	3	24	c	j	452.79	1	1000	1000	0	0
015	3	31	?	P	f	1070.2	NA	4	56	9	24	i	n	719.59	0	100	100	0	0
015	3	32	?	P	f	934.98	NA	2	24	8	56	c	n	386.39	1	100	1000	0	1
015	3	33	?	N	d	636.17	NA	8	24	4	56	i	j	586.97	1	100	1000	0	0
015	3	34	?	P	f	553.02	NA	7	24	2	56	i	n	620.51	1	100	1000	0	0
015	3	35	?	N	d	870.04	NA	4	56	9	24	i	n	752.75	1	1000	1000	0	0
015	3	36	?	P	f	302.85	NA	3	56	8	24	i	j	436.91	1	1000	100	0	0
015	3	37	?	N	d	969.93	NA	4	56	7	24	i	n	1053.82	1	100	100	0	0
015	3	38	?	P	f	250.57	NA	9	24	3	56	i	n	720.14	1	1000	100	0	0
015	3	39	?	P	f	1754.7	NA	2	24	7	56	c	n	369.4	1	100	100	0	0
015	3	40	?	P	f	336.31	NA	4	24	8	56	c	n	418.7	1	1000	1000	0	0
015	3	41	?	N	d	786.61	NA	8	56	3	24	c	j	603.59	1	100	100	0	0
015	3	42	?	N	d	302.71	NA	4	56	7	24	i	n	570.12	1	1000	1000	0	0
015	3	43	?	P	f	619.15	NA	2	24	8	56	c	n	453.22	1	100	1000	0	0
015	3	44	?	P	f	286.3	NA	8	24	3	56	i	n	736.92	1	1000	1000	0	0
015	3	45	?	N	d	653.26	NA	4	56	8	24	i	n	1253.53	1	100	1000	0	0
015	3	46	?	P	f	269.25	NA	8	24	3	56	i	n	703.62	1	1000	100	0	0
015	3	47	?	N	d	470.23	NA	4	56	8	24	i	n	503.87	1	100	100	0	0
015	3	48	?	N	d	302.84	NA	2	24	9	56	c	n	419.64	1	1000	100	0	0
015	3	49	?	N	d	252.49	NA	4	24	7	56	c	n	503.48	1	1000	1000	0	0
015	3	50	?	P	f	369.24	NA	3	24	9	56	c	n	553.53	1	1000	100	0	0
015	3	51	?	P	f	452.89	NA	7	56	2	24	c	j	920.18	1	1000	100	0	0
015	3	52	?	N	d	1587.41	NA	9	56	4	24	c	j	419.72	1	100	1000	0	0
015	3	53	?	P	f	769.95	NA	3	56	7	24	i	j	369.98	1	100	1000	0	0
015	3	54	?	P	f	319.76	NA	7	24	4	56	i	n	535.03	1	1000	100	0	0
015	3	55	?	P	f	402.25	NA	3	56	7	24	i	j	302.84	1	100	1000	0	0
015	3	56	?	N	d	319.22	NA	2	24	7	56	c	n	400.8	1	1000	100	0	0
015	3	57	?	N	d	118.98	NA	9	56	3	24	c	j	485.44	1	1000	100	0	0
015	3	58	?	N	d	1137.16	NA	2	56	8	24	i	j	436.32	0	1000	1000	0	0
015	3	59	?	N	d	1420.49	NA	9	56	4	24	c	j	567.37	1	100	100	0	1
015	3	60	?	P	f	569.78	NA	2	56	8	24	i	j	434.32	1	100	1000	0	0
015	3	61	?	P	f	402.55	NA	4	56	9	24	i	j	435.38	1	100	100	0	0
015	3	62	?	P	f	219.38	NA	3	56	7	24	i	n	518.7	0	1000	1000	0	0
015	3	63	?	N	d	1520.28	NA	9	24	4	56	i	j	519.42	1	100	100	0	1
015	3	64	?	N	d	168.93	NA	3	56	7	24	i	n	1087.23	1	1000	100	0	0
015	3	65	?	N	d	936.79	NA	2	56	9	24	i	n	520.36	1	100	1000	0	0
015	4	1	?	N	d	702.93	NA	2	56	9	24	i	n	586.3	1	100	100	-1	0
015	4	2	?	N	d	502.85	NA	8	56	3	24	c	j	504.01	1	1000	100	0	0
015	4	3	?	P	f	569.61	NA	7	56	4	24	c	j	619.77	1	100	100	0	0
015	4	4	?	P	f	434.09	NA	3	24	9	56	c	n	403.7	1	100	100	0	0
015	4	5	?	P	f	335.84	NA	8	24	4	56	i	n	403.03	1	100	1000	0	0
015	4	6	?	N	d	452.69	NA	9	24	3	56	i	j	436.63	1	1000	1000	0	0
015	4	7	?	N	d	285.92	NA	2	24	7	56	c	n	402.22	1	1000	1000	0	0
015	4	8	?	P	f	1087.04	NA	8	24	3	56	i	n	886.85	1	100	1000	0	0
015	4	9	?	P	f	352.7	NA	4	24	8	56	c	n	352.79	1	1000	1000	0	0
015	4	10	?	P	f	1804.08	NA	3	24	8	56	c	n	386.03	1	100	100	0	0
015	4	11	?	P	f	302.57	NA	4	24	8	56	c	n	369.67	1	1000	1000	0	0
015	4	12	?	N	d	619.41	NA	8	56	2	24	c	j	553.22	1	100	100	0	0
015	4	13	?	P	f	486.61	NA	8	24	3	56	i	n	369.66	1	1000	1000	0	0
015	4	14	?	N	d	486.25	NA	8	24	4	56	i	j	719.82	1	100	100	0	0
015	4	15	?	N	d	519.72	NA	7	56	3	24	c	j	352.04	1	100	1000	0	0
015	4	16	?	P	f	302.73	NA	9	56	4	24	c	j	469.67	1	1000	1000	0	0
015	4	17	?	P	f	135.02	NA	7	24	3	56	i	n	452.21	1	1000	1000	0	0
015	4	18	?	P	f	1003.27	NA	2	56	7	24	i	j	804.02	1	100	1000	0	0
015	4	19	?	P	f	252.56	NA	3	24	7	56	c	n	418.87	1	1000	100	0	0
015	4	20	?	N	d	419.66	NA	8	24	4	56	i	j	718.15	1	100	1000	0	0
015	4	21	?	N	d	336.25	NA	9	24	3	56	i	j	553.18	1	1000	100	0	0
015	4	22	?	P	f	452.3	NA	2	24	8	56	c	n	453.06	1	100	100	0	0
015	4	23	?	N	d	135.5	NA	4	24	7	56	c	n	1087.2	1	1000	100	0	0
015	4	24	?	P	f	536.42	NA	2	24	7	56	c	n	469.77	1	100	1000	0	0
015	4	25	?	P	f	1904.28	NA	8	56	3	24	c	j	436.68	1	1000	100	0	0
015	4	26	?	P	f	736.63	NA	2	56	8	24	i	j	619.81	1	100	100	0	0
015	4	27	?	N	d	502.75	NA	4	24	8	56	c	n	384.24	1	1000	100	0	0
015	4	28	?	N	d	318.82	NA	3	24	7	56	c	n	369.2	1	1000	100	0	0
015	4	29	?	P	f	920.09	NA	2	56	8	24	i	j	352.69	1	100	100	0	0
015	4	30	?	P	f	735.82	NA	3	56	8	24	i	j	319.9	1	100	1000	0	0
015	4	31	?	N	d	83.67	NA	9	56	4	24	c	j	453.43	1	1000	1000	0	0
015	4	32	?	N	d	285.94	NA	7	24	2	56	i	j	653.54	1	1000	100	0	0
015	4	33	?	P	f	2555.33	NA	8	56	4	24	c	j	317.75	1	100	1000	0	0
015	4	34	?	P	f	519.93	NA	9	56	3	24	c	j	352.86	1	100	100	0	0
015	4	35	?	N	d	502.97	NA	2	56	9	24	i	j	386.04	0	1000	1000	0	0
015	4	36	?	N	d	1637.41	NA	4	24	8	56	c	n	384.04	1	100	1000	0	1
015	4	37	?	P	f	2154.42	NA	3	24	7	56	c	n	436.33	1	1000	1000	0	0
015	4	38	?	N	d	919.73	NA	4	24	7	56	c	n	736.57	1	100	1000	0	0
015	4	39	?	P	f	251.81	NA	7	56	3	24	c	j	319.71	1	1000	1000	0	0
015	4	40	?	N	d	386.06	NA	7	24	2	56	i	j	585.82	1	1000	100	0	0
015	4	41	?	N	d	936.76	NA	3	56	9	24	i	n	453.73	1	100	1000	0	0
015	4	42	?	N	d	336.15	NA	4	56	9	24	i	n	485.54	1	1000	100	0	0
015	4	43	?	P	f	336.06	NA	7	56	2	24	c	j	384.01	1	1000	100	0	0
015	4	44	?	P	f	536.56	NA	7	24	3	56	i	n	436.04	1	100	100	0	0
015	4	45	?	P	f	452.56	NA	9	56	4	24	c	j	486.4	1	100	100	0	0
015	4	46	?	P	f	686.65	NA	9	56	2	24	c	j	385.98	1	100	1000	0	0
015	4	47	?	N	d	168.56	NA	3	56	7	24	i	n	501.0	1	1000	100	0	0
015	4	48	?	P	f	486.53	NA	9	24	2	56	i	n	703.53	1	100	100	0	0
015	4	49	?	N	d	436.04	NA	4	56	9	24	i	n	519.56	1	100	1000	0	0
015	4	50	?	P	f	252.48	NA	2	56	9	24	i	j	385.46	1	1000	100	0	0
015	4	51	?	N	d	185.41	NA	9	56	3	24	c	j	536.42	1	1000	100	0	0
015	4	52	?	P	f	52.17	NA	4	56	8	24	i	n	519.93	0	1000	1000	0	0
015	4	53	?	N	d	952.78	NA	2	56	9	24	i	n	1637.33	1	100	100	0	1
015	4	54	?	N	d	719.82	NA	8	56	3	24	c	j	803.68	1	100	1000	0	0
015	4	55	?	N	d	1151.84	NA	8	24	2	56	i	j	470.43	1	100	1000	0	0
015	4	56	?	P	f	518.83	NA	4	24	8	56	c	n	486.67	1	100	100	0	0
015	4	57	?	P	f	400.99	NA	2	24	8	56	c	n	535.75	1	100	1000	0	0
015	4	58	?	N	d	550.85	NA	3	56	9	24	i	n	1353.22	1	100	100	0	0
015	4	59	?	P	f	219.09	NA	8	56	2	24	c	j	452.84	1	1000	1000	0	0
015	4	60	?	N	d	502.99	NA	3	56	9	24	i	n	486.12	1	1000	100	0	0
015	4	61	?	P	f	319.28	NA	8	24	4	56	i	n	319.29	1	1000	1000	0	0
015	4	62	?	N	d	369.42	NA	7	24	3	56	i	j	503.35	1	1000	1000	0	0
015	4	63	?	P	f	318.74	NA	2	56	8	24	i	j	286.44	1	1000	1000	0	0
015	4	64	?	P	f	1020.64	NA	4	56	9	24	i	j	603.52	1	100	100	0	0
015	4	65	?	P	f	285.55	NA	9	24	2	56	i	n	453.61	1	1000	100	0	0
015	5	1	?	N	d	369.34	NA	7	56	4	24	c	j	420.09	1	1000	1000	-1	0
015	5	2	?	N	d	517.79	NA	7	24	3	56	i	n	503.35	0	100	1000	0	0
015	5	3	?	N	d	286.07	NA	7	24	2	56	i	j	402.75	1	1000	100	0	1
015	5	4	?	N	d	986.76	NA	4	56	7	24	i	n	553.24	1	100	1000	0	0
015	5	5	?	P	f	502.95	NA	3	56	7	24	i	j	452.62	1	100	100	0	0
015	5	6	?	P	f	335.89	NA	4	24	7	56	c	n	369.71	1	1000	1000	0	0
015	5	7	?	P	f	753.08	NA	9	24	2	56	i	n	550.62	1	100	100	0	0
015	5	8	?	N	d	586.42	NA	9	56	3	24	c	j	569.45	1	100	1000	0	0
015	5	9	?	N	d	269.32	NA	9	56	2	24	c	j	403.35	1	1000	100	0	0
015	5	10	?	P	f	135.72	NA	9	24	4	56	i	n	1321.07	1	1000	1000	0	0
015	5	11	?	P	f	252.84	NA	8	56	3	24	c	j	886.94	1	1000	1000	0	0
015	5	12	?	P	f	386.19	NA	2	24	8	56	c	n	519.51	1	1000	1000	0	0
015	5	13	?	N	d	285.86	NA	7	56	4	24	c	j	1554.96	1	1000	1000	0	0
015	5	14	?	N	d	569.55	NA	3	56	9	24	i	n	770.4	1	100	100	0	0
015	5	15	?	N	d	536.2	NA	9	56	2	24	c	j	453.25	1	100	100	0	0
015	5	16	?	P	f	385.99	NA	9	56	3	24	c	j	486.38	1	100	1000	0	0
015	5	17	?	P	f	402.92	NA	7	24	4	56	i	n	469.95	1	100	100	0	0
015	5	18	?	P	f	152.52	NA	8	24	2	56	i	n	703.4	1	1000	1000	0	0
015	5	19	?	N	d	318.97	NA	3	56	8	24	i	n	469.4	1	1000	100	0	0
015	5	20	?	N	d	52.3	NA	8	56	4	24	c	j	569.82	1	1000	1000	0	0
015	5	21	?	P	f	1036.86	NA	2	24	7	56	c	n	567.32	1	100	100	0	0
015	5	22	?	N	d	452.77	NA	8	56	3	24	c	j	452.55	1	1000	100	0	0
015	5	23	?	P	f	302.76	NA	2	24	8	56	c	n	403.52	1	1000	100	0	0
015	5	24	?	N	d	886.59	NA	4	56	8	24	i	n	435.78	1	100	1000	0	0
015	5	25	?	P	f	719.06	NA	7	56	3	24	c	j	503.57	1	100	100	0	0
015	5	26	?	P	f	320.03	NA	2	56	8	24	i	j	436.32	1	1000	1000	0	0
015	5	27	?	N	d	387.07	NA	7	56	3	24	c	j	836.65	1	1000	1000	0	0
015	5	28	?	N	d	651.87	NA	4	24	7	56	c	n	586.0	1	100	100	0	0
015	5	29	?	P	f	536.34	NA	3	24	7	56	c	n	336.11	1	100	1000	0	0
015	5	30	?	P	f	319.28	NA	2	24	7	56	c	n	418.96	1	1000	100	0	0
015	5	31	?	N	d	336.19	NA	3	56	7	24	i	n	917.95	1	1000	100	0	0
015	5	32	?	N	d	2738.58	NA	9	24	4	56	i	j	570.09	1	100	100	0	0
015	5	33	?	P	f	302.81	NA	2	24	9	56	c	n	453.16	1	1000	1000	0	0
015	5	34	?	P	f	36.8	NA	3	56	9	24	i	j	403.11	1	1000	100	0	0
015	5	35	?	P	f	2454.43	NA	9	24	4	56	i	j	517.89	0	100	1000	0	0
015	5	36	?	P	f	352.87	NA	3	24	7	56	c	n	552.79	1	1000	100	0	1
015	5	37	?	P	f	418.91	NA	9	56	2	24	c	j	452.74	1	100	100	0	0
015	5	38	?	N	d	401.95	NA	8	56	4	24	c	j	553.41	1	100	100	0	0
015	5	39	?	N	d	469.61	NA	3	24	9	56	c	n	486.75	1	100	1000	0	0
015	5	40	?	N	d	302.69	NA	9	56	2	24	c	j	502.9	1	1000	100	0	0
015	5	41	?	N	d	703.55	NA	8	24	4	56	i	j	586.13	1	100	1000	0	0
015	5	42	?	P	f	452.73	NA	2	56	9	24	i	j	469.33	1	100	100	0	0
015	5	43	?	P	f	285.92	NA	4	56	8	24	i	j	403.01	1	1000	1000	0	0
015	5	44	?	N	d	536.16	NA	3	56	8	24	i	n	1304.16	1	100	100	0	0
015	5	45	?	P	f	719.58	NA	4	24	9	56	c	n	1036.73	1	100	1000	0	0
015	5	46	?	N	d	35.34	NA	3	24	7	56	c	n	503.06	1	1000	100	0	0
015	5	47	?	P	f	419.74	NA	8	56	4	24	c	n	486.09	0	100	1000	0	0
015	5	48	?	P	f	1137.05	NA	2	56	8	24	i	j	419.96	1	100	1000	0	1
015	5	49	?	P	f	402.75	NA	4	56	8	24	i	j	553.37	1	100	100	0	0
015	5	50	?	N	d	402.64	NA	2	24	8	56	c	n	453.36	1	100	100	0	0
015	5	51	?	N	d	319.48	NA	9	24	3	56	i	j	502.76	1	1000	100	0	0
015	5	52	?	P	f	319.64	NA	4	24	8	56	c	n	435.92	1	1000	1000	0	0
015	5	53	?	P	f	302.5	NA	7	56	2	24	c	j	435.68	1	1000	100	0	0
015	5	54	?	P	f	319.66	NA	9	24	3	56	i	n	336.15	1	1000	1000	0	0
015	5	55	?	N	d	219.32	NA	4	56	8	24	i	n	519.56	1	1000	1000	0	0
015	5	56	?	N	d	402.2	NA	3	56	8	24	i	n	469.65	1	1000	100	0	0
015	5	57	?	N	d	469.15	NA	4	24	9	56	c	n	517.56	1	100	100	0	0
015	5	58	?	P	f	335.87	NA	2	56	8	24	i	j	353.4	1	1000	1000	0	0
015	5	59	?	P	f	285.88	NA	3	56	7	24	i	n	569.87	0	1000	1000	0	0
015	5	60	?	P	f	1737.52	NA	4	24	9	56	c	n	452.67	1	100	1000	0	1
015	5	61	?	P	f	1120.14	NA	3	56	9	24	i	j	385.83	1	100	1000	0	0
015	5	62	?	N	d	535.83	NA	7	56	4	24	c	j	602.74	1	100	1000	0	0
015	5	63	?	N	d	486.34	NA	2	56	9	24	i	n	486.21	1	100	1000	0	0
015	5	64	?	N	d	251.99	NA	7	24	4	56	i	j	451.63	1	1000	100	0	0
015	5	65	?	P	f	319.25	NA	9	24	2	56	i	j	370.03	0	1000	100	0	0
015	6	1	?	P	f	1954.5	NA	3	24	8	56	c	n	369.16	1	100	100	-1	0
015	6	2	?	P	f	269.69	NA	8	24	4	56	i	n	570.0	1	1000	100	0	0
015	6	3	?	P	f	452.28	NA	3	56	8	24	i	j	435.28	1	100	100	0	0
015	6	4	?	P	f	134.72	NA	4	24	8	56	c	n	386.08	1	1000	1000	0	0
015	6	5	?	P	f	252.07	NA	8	56	3	24	c	j	369.96	1	1000	100	0	0
015	6	6	?	N	d	502.89	NA	4	24	7	56	c	n	434.53	1	100	1000	0	0
015	6	7	?	N	d	336.06	NA	8	24	3	56	i	j	536.51	1	1000	100	0	0
015	6	8	?	N	d	686.68	NA	2	24	8	56	c	n	502.54	1	100	100	0	0
015	6	9	?	P	f	268.92	NA	3	56	9	24	i	j	535.84	1	1000	1000	0	0
015	6	10	?	N	d	102.02	NA	2	24	7	56	c	n	553.27	1	1000	100	0	0
015	6	11	?	P	f	285.84	NA	3	56	7	24	i	j	353.02	1	1000	1000	0	0
015	6	12	?	N	d	636.31	NA	7	24	4	56	i	j	602.84	1	100	100	0	0
015	6	13	?	N	d	302.73	NA	3	56	7	24	i	n	452.91	1	1000	1000	0	0
015	6	14	?	N	d	34.94	NA	7	24	4	56	i	j	519.71	1	1000	100	0	0
015	6	15	?	P	f	469.8	NA	8	24	3	56	i	n	701.69	1	100	1000	0	0
015	6	16	?	P	f	853.69	NA	2	24	9	56	c	n	419.59	1	100	1000	0	0
015	6	17	?	N	d	1136.73	NA	9	56	3	24	c	j	553.29	1	1000	1000	0	0
015	6	18	?	N	d	653.34	NA	7	56	4	24	c	j	520.11	1	100	1000	0	0
015	6	19	?	P	f	502.62	NA	7	24	3	56	i	n	503.41	1	100	100	0	0
015	6	20	?	N	d	118.85	NA	9	56	2	24	c	j	420.15	1	1000	100	0	0
015	6	21	?	P	f	385.84	NA	3	56	7	24	i	j	769.66	1	1000	100	0	0
015	6	22	?	P	f	802.46	NA	4	24	8	56	c	n	436.87	1	100	100	0	0
015	6	23	?	P	f	252.51	NA	8	56	2	24	c	j	436.83	1	1000	1000	0	0
015	6	24	?	N	d	636.26	NA	9	24	4	56	i	n	453.62	0	100	1000	0	0
015	6	25	?	N	d	1036.72	NA	9	24	3	56	i	j	417.7	1	100	100	0	1
015	6	26	?	N	d	437.14	NA	4	56	9	24	i	n	469.12	1	100	100	0	0
015	6	27	?	N	d	369.18	NA	9	56	3	24	c	j	403.23	1	100	100	0	0
015	6	28	?	P	f	536.1	NA	9	24	4	56	i	n	386.23	1	100	1000	0	0
015	6	29	?	P	f	553.0	NA	9	56	3	24	c	j	453.31	1	100	1000	0	0
015	6	30	?	P	f	736.39	NA	9	24	4	56	i	n	486.37	1	100	100	0	0
015	6	31	?	P	f	35.38	NA	3	24	7	56	c	n	369.54	1	1000	1000	0	0
015	6	32	?	N	d	753.27	NA	4	24	7	56	c	j	620.01	0	100	100	0	0
015	6	33	?	N	d	586.36	NA	7	56	3	24	c	j	552.99	1	100	1000	0	1
015	6	34	?	N	d	436.44	NA	4	24	8	56	c	n	536.27	1	100	1000	0	0
015	6	35	?	N	d	535.62	NA	3	56	9	24	i	n	686.0	1	100	100	0	0
015	6	36	?	P	f	403.04	NA	4	56	8	24	i	j	351.01	1	100	1000	0	0
015	6	37	?	P	f	402.6	NA	9	56	3	24	c	j	403.09	1	100	100	0	0
015	6	38	?	N	d	285.3	NA	4	24	9	56	c	n	820.66	1	1000	100	0	0
015	6	39	?	N	d	386.05	NA	3	56	8	24	i	n	453.49	1	1000	100	0	0
015	6	40	?	P	f	285.98	NA	9	24	2	56	i	j	535.47	0	1000	1000	0	0
015	6	41	?	P	f	452.18	NA	8	24	3	56	i	n	703.39	1	100	1000	0	1
015	6	42	?	P	f	235.88	NA	7	24	2	56	i	n	369.18	1	1000	1000	0	0
015	6	43	?	N	d	469.13	NA	3	24	7	56	c	n	801.55	1	100	100	0	0
015	6	44	?	N	d	369.44	NA	9	24	4	56	i	j	635.78	1	100	1000	0	0
015	6	45	?	P	f	85.78	NA	3	24	7	56	c	n	352.64	1	1000	1000	0	0
015	6	46	?	P	f	269.39	NA	9	56	4	24	c	j	452.79	1	1000	100	0	0
015	6	47	?	P	f	486.36	NA	3	56	7	24	i	j	553.42	1	100	1000	0	0
015	6	48	?	N	d	369.46	NA	2	56	8	24	i	n	1137.3	1	1000	100	0	0
015	6	49	?	N	d	1119.95	NA	3	24	9	56	c	n	469.42	1	100	1000	0	0
015	6	50	?	N	d	252.2	NA	8	24	4	56	i	j	500.85	1	1000	100	0	0
015	6	51	?	N	d	302.2	NA	2	56	7	24	i	n	536.68	1	1000	100	0	0
015	6	52	?	P	f	503.87	NA	8	24	3	56	i	n	369.43	1	100	1000	0	0
015	6	53	?	P	f	235.98	NA	2	24	7	56	c	n	470.07	1	1000	100	0	0
015	6	54	?	N	d	1604.23	NA	9	56	3	24	c	j	469.97	1	100	100	0	0
015	6	55	?	P	f	2.47	NA	9	24	4	56	i	n	920.22	1	1000	1000	0	0
015	6	56	?	P	f	285.18	NA	8	56	2	24	c	j	486.73	1	1000	1000	0	0
015	6	57	?	N	d	486.47	NA	8	56	4	24	c	j	686.36	1	100	100	0	0
015	6	58	?	N	d	552.82	NA	8	56	2	24	c	j	452.76	1	100	1000	0	0
015	6	59	?	P	f	252.36	NA	3	24	7	56	c	n	400.63	1	1000	100	0	0
015	6	60	?	P	f	319.32	NA	7	56	4	24	c	j	519.48	1	1000	100	0	0
015	6	61	?	P	f	818.05	NA	2	56	8	24	i	n	536.06	0	100	100	0	0
015	6	62	?	N	d	2071.33	NA	9	56	3	24	c	j	2055.14	1	1000	1000	0	1
015	6	63	?	N	d	352.39	NA	2	24	7	56	c	n	370.18	1	1000	1000	0	0
015	6	64	?	P	f	336.01	NA	4	56	8	24	i	j	419.3	1	1000	1000	0	0
015	6	65	?	P	f	368.64	NA	2	56	7	24	i	j	570.38	1	1000	1000	0	0
