subj	block	trial	task_cue	task	choice_resp	choiceRT	choice_acc	topnum	topsize	botnum	botsize	cong	task_resp	taskRT	task_acc	RSI	CSI	altRep	E1
018	1	1	N	N	f	635.21	0	2	56	9	24	i	n	986.4	1	1000	100	-1	0
018	1	2	N	N	f	585.92	0	8	56	4	24	c	j	702.76	1	100	100	0	0
018	1	3	N	N	f	618.59	0	2	24	9	56	c	n	852.84	1	100	100	0	0
018	1	4	N	N	f	535.46	0	4	56	9	24	i	n	668.87	1	100	100	0	0
018	1	5	N	N	f	634.92	0	7	56	2	24	c	j	667.93	1	100	1000	0	0
018	1	6	N	N	f	568.5	0	4	24	7	56	c	n	485.99	1	100	1000	0	0
018	1	7	N	N	f	601.98	0	7	24	3	56	i	j	769.37	1	1000	100	0	0
018	1	8	P	P	d	785.9	1	7	56	2	24	c	j	535.58	1	100	100	1	0
018	1	9	P	P	d	684.72	1	4	24	7	56	c	n	468.09	1	100	1000	0	0
018	1	10	P	P	d	518.89	1	8	56	2	24	c	j	519.09	1	100	100	0	0
018	1	11	P	P	d	535.63	1	3	56	9	24	i	n	752.76	0	100	1000	0	0
018	1	12	P	P	d	586.07	1	7	24	2	56	i	n	985.4	1	1000	100	0	1
018	1	13	N	N	f	436.18	0	8	24	4	56	i	j	602.95	1	1000	1000	1	0
018	1	14	P	P	d	402.25	1	2	56	8	24	i	j	769.25	1	1000	100	1	0
018	1	15	N	N	f	418.92	0	4	56	7	24	i	n	585.71	1	1000	1000	1	0
018	1	16	P	P	d	1020.09	1	9	24	3	56	i	n	903.2	1	1000	100	1	0
018	1	17	N	N	f	335.25	0	8	56	2	24	c	j	602.45	1	1000	100	1	0
018	1	18	N	N	f	418.96	0	3	24	9	56	c	j	569.24	0	1000	1000	0	0
018	1	19	N	N	f	1553.79	0	8	24	4	56	i	j	684.69	1	100	100	0	1
018	1	20	P	P	d	851.91	1	3	24	8	56	c	n	452.21	1	100	1000	1	0
018	1	21	N	N	f	686.17	0	8	56	4	24	c	j	1035.94	1	100	100	1	0
018	1	22	N	N	f	668.3	0	3	56	9	24	i	n	686.04	1	1000	100	0	0
018	1	23	P	P	d	335.56	1	7	24	2	56	i	n	669.31	1	1000	1000	1	0
018	1	24	N	N	f	1469.29	0	4	24	8	56	c	n	769.37	1	100	1000	1	0
018	1	25	P	P	d	686.23	1	2	24	7	56	c	n	569.1	1	1000	1000	1	0
018	1	26	P	P	d	569.04	1	3	24	7	56	c	n	619.8	1	100	100	0	0
018	1	27	N	N	f	584.48	0	9	24	2	56	i	j	702.34	1	100	100	1	0
018	1	28	P	P	d	603.14	1	4	56	9	24	i	j	735.65	1	100	1000	1	0
018	1	29	N	N	f	569.15	0	9	24	2	56	i	j	685.79	1	100	1000	1	0
018	1	30	P	P	d	702.1	1	9	56	3	24	c	j	635.91	1	100	1000	1	0
018	1	31	P	P	f	451.71	1	4	24	7	56	c	n	2387.83	1	1000	100	0	0
018	1	32	N	N	f	502.07	0	2	24	7	56	c	n	836.03	1	1000	100	1	0
018	1	33	N	N	f	518.46	0	8	24	4	56	i	j	535.64	1	1000	1000	0	0
018	1	34	N	N	f	569.05	0	7	56	3	24	c	j	585.95	1	1000	100	0	0
018	1	35	P	P	d	886.05	1	2	24	7	56	c	n	669.39	1	1000	100	1	0
018	1	36	N	N	f	585.58	0	4	56	7	24	i	n	652.41	1	1000	100	1	0
018	1	37	P	P	d	535.69	1	8	56	2	24	c	j	719.22	1	1000	100	1	0
018	1	38	P	P	d	435.84	1	8	56	4	24	c	j	619.31	1	1000	100	0	0
018	1	39	P	P	d	735.89	1	2	56	8	24	i	j	1086.22	1	1000	1000	0	0
018	1	40	P	P	d	635.78	1	9	24	4	56	i	n	702.37	1	100	1000	0	0
018	1	41	P	P	d	536.17	1	7	56	3	24	c	j	452.33	1	100	1000	0	0
018	1	42	P	P	d	569.02	1	9	56	2	24	c	j	719.26	1	1000	1000	0	0
018	1	43	P	P	d	685.99	1	9	24	3	56	i	n	435.55	1	1000	1000	0	0
018	1	44	N	N	f	618.2	0	7	56	2	24	c	j	518.34	1	100	1000	1	0
018	1	45	P	P	f	619.36	1	9	56	3	24	c	j	435.76	1	1000	1000	1	0
018	1	46	P	P	d	635.61	1	4	24	9	56	c	n	584.76	1	1000	1000	0	0
018	1	47	N	N	f	519.12	0	2	24	7	56	c	n	752.46	1	1000	1000	1	0
018	1	48	P	P	d	668.84	1	7	24	4	56	i	n	835.55	1	100	1000	1	0
018	1	49	N	N	f	469.0	0	3	56	9	24	i	n	936.26	1	100	100	1	0
018	1	50	N	N	f	569.07	0	9	56	4	24	c	j	452.21	1	1000	1000	0	0
018	1	51	P	P	d	635.5	1	7	24	2	56	i	n	452.08	1	100	100	1	0
018	1	52	P	P	d	502.55	1	8	24	4	56	i	n	585.8	1	100	100	0	0
018	1	53	N	N	f	585.95	0	2	56	7	24	i	n	685.67	1	100	1000	1	0
018	1	54	P	P	d	435.78	1	3	56	8	24	i	j	435.44	1	1000	1000	1	0
018	1	55	P	P	d	584.37	1	4	56	8	24	i	j	720.01	1	1000	100	0	0
018	1	56	P	P	d	419.31	1	3	56	7	24	i	j	601.84	1	100	100	0	0
018	1	57	N	N	f	486.08	0	7	24	2	56	i	j	717.81	1	1000	100	1	0
018	1	58	N	N	f	535.21	0	4	56	7	24	i	n	519.2	1	100	1000	0	0
018	1	59	N	N	f	901.87	0	2	56	8	24	i	n	1119.8	1	1000	1000	0	0
018	1	60	P	P	d	517.73	1	3	56	7	24	i	j	669.77	1	100	100	1	0
018	1	61	N	N	f	536.82	0	4	24	8	56	c	n	569.23	1	100	100	1	0
018	1	62	N	N	f	652.53	0	7	24	2	56	i	n	685.89	0	100	1000	0	0
018	1	63	P	P	d	952.51	1	4	24	7	56	c	n	519.05	1	100	100	1	1
018	1	64	N	N	f	719.25	0	9	56	3	24	c	j	652.71	1	1000	1000	1	0
018	1	65	N	N	f	519.02	0	2	24	9	56	c	n	467.56	1	1000	100	0	0
018	2	1	P	P	d	785.98	1	9	56	2	24	c	j	435.57	1	100	1000	-1	0
018	2	2	N	N	f	535.32	0	3	56	8	24	i	n	1002.99	1	1000	1000	1	0
018	2	3	P	P	d	1803.51	1	9	56	2	24	c	j	752.47	1	100	100	1	0
018	2	4	P	P	d	668.89	1	4	24	8	56	c	n	1169.53	1	1000	100	0	0
018	2	5	N	N	f	435.55	0	9	56	2	24	c	j	570.48	1	100	100	1	0
018	2	6	P	P	d	518.44	1	8	24	3	56	i	j	702.64	0	100	100	1	0
018	2	7	N	N	f	686.04	0	4	24	7	56	c	n	1202.21	1	1000	100	1	1
018	2	8	P	P	d	535.96	1	3	24	9	56	c	n	452.27	1	100	1000	1	0
018	2	9	N	N	f	468.68	0	2	56	9	24	i	n	1002.7	1	100	1000	1	0
018	2	10	P	P	d	551.96	1	3	56	8	24	i	j	418.75	1	100	1000	1	0
018	2	11	P	P	d	1269.2	1	8	24	4	56	i	j	1302.13	0	1000	100	0	0
018	2	12	N	N	f	919.86	0	7	56	2	24	c	j	702.45	1	1000	1000	1	1
018	2	13	N	N	d	301.45	0	9	24	4	56	i	j	752.59	1	1000	1000	0	0
018	2	14	P	P	d	618.96	1	8	56	3	24	c	j	785.98	1	100	1000	1	0
018	2	15	N	N	d	468.6	0	8	56	4	24	c	j	569.07	1	100	1000	1	0
018	2	16	P	P	d	667.81	1	3	56	7	24	i	j	552.21	1	1000	100	1	0
018	2	17	N	N	f	485.8	0	4	56	9	24	i	n	751.76	1	100	100	1	0
018	2	18	N	N	f	569.16	0	2	56	8	24	i	n	485.4	1	1000	1000	0	0
018	2	19	P	P	d	668.62	1	4	56	8	24	i	j	635.69	1	100	100	1	0
018	2	20	N	N	f	451.6	0	3	24	8	56	c	n	668.26	1	100	1000	1	0
018	2	21	N	N	f	519.09	0	4	56	7	24	i	n	869.78	1	1000	100	0	0
018	2	22	P	P	d	718.94	1	3	24	7	56	c	n	702.48	1	1000	100	1	0
018	2	23	N	N	f	550.97	0	2	24	8	56	c	n	819.78	1	100	100	1	0
018	2	24	N	N	f	685.98	0	4	56	8	24	i	n	852.87	1	100	1000	0	0
018	2	25	P	P	d	619.61	1	9	56	3	24	c	j	435.53	1	1000	1000	1	0
018	2	26	P	P	d	735.87	1	4	24	9	56	c	n	584.69	1	1000	1000	0	0
018	2	27	P	P	d	718.33	1	3	56	8	24	i	j	569.26	1	100	1000	0	0
018	2	28	N	N	f	519.5	0	8	24	4	56	i	j	852.6	1	100	1000	1	0
018	2	29	N	N	f	519.11	0	9	56	3	24	c	n	1136.35	0	1000	1000	0	0
018	2	30	P	P	d	1420.07	1	4	56	9	24	i	j	435.3	1	1000	1000	1	1
018	2	31	P	P	d	836.04	1	2	56	9	24	i	j	569.04	1	1000	1000	0	0
018	2	32	P	P	d	635.94	1	3	56	8	24	i	j	535.55	1	100	100	0	0
018	2	33	N	N	f	586.14	0	8	56	2	24	c	j	669.27	1	1000	100	1	0
018	2	34	P	P	d	536.09	1	7	24	4	56	i	n	785.51	1	1000	100	1	0
018	2	35	N	N	f	537.03	0	3	24	7	56	c	n	686.07	1	1000	1000	1	0
018	2	36	N	N	f	652.19	0	7	56	4	24	c	j	502.28	1	100	1000	0	0
018	2	37	N	N	f	518.87	0	9	56	2	24	c	j	535.48	1	1000	100	0	0
018	2	38	N	N	f	484.56	0	4	24	8	56	c	n	635.7	1	100	1000	0	0
018	2	39	N	N	f	552.55	0	8	24	3	56	i	n	519.35	0	100	100	0	0
018	2	40	N	N	f	568.78	0	4	24	8	56	c	n	769.61	1	1000	100	0	1
018	2	41	N	N	f	569.09	0	2	24	8	56	c	n	768.51	1	100	100	0	0
018	2	42	P	P	d	452.69	1	8	24	4	56	i	n	1052.87	1	1000	1000	1	0
018	2	43	P	P	d	585.84	1	9	56	3	24	c	j	485.01	1	100	1000	0	0
018	2	44	N	N	f	801.63	0	7	24	4	56	i	j	602.59	1	1000	1000	1	0
018	2	45	P	P	d	619.25	1	2	24	9	56	c	n	1085.93	1	100	100	1	0
018	2	46	P	P	d	469.04	1	4	56	8	24	i	j	469.08	1	1000	100	0	0
018	2	47	N	N	f	602.34	0	8	24	3	56	i	j	668.62	1	100	100	1	0
018	2	48	P	P	d	602.43	1	2	24	9	56	c	n	552.32	1	1000	1000	1	0
018	2	49	P	P	d	518.31	1	3	24	8	56	c	n	669.23	1	100	1000	0	0
018	2	50	P	P	d	652.73	1	9	24	2	56	i	n	818.2	1	100	100	0	0
018	2	51	P	P	d	401.64	1	7	56	4	24	c	j	452.15	1	100	100	0	0
018	2	52	P	P	d	452.37	1	7	56	2	24	c	j	468.74	1	1000	1000	0	0
018	2	53	P	P	d	2387.77	1	9	56	3	24	c	j	952.77	1	1000	100	0	0
018	2	54	N	N	f	752.96	0	4	56	9	24	i	n	651.93	1	1000	100	1	0
018	2	55	N	N	f	669.09	0	3	56	8	24	i	n	602.91	1	100	100	0	0
018	2	56	N	N	f	401.62	0	8	24	2	56	i	j	552.46	1	100	1000	0	0
018	2	57	N	N	f	585.66	0	3	24	8	56	c	n	752.11	1	1000	1000	0	0
018	2	58	N	N	f	502.29	0	8	56	4	24	c	j	501.32	1	100	100	0	0
018	2	59	P	P	d	368.31	1	9	56	2	24	c	j	502.07	1	1000	100	1	0
018	2	60	P	P	d	385.16	1	8	24	4	56	i	n	385.66	1	100	1000	0	0
018	2	61	P	P	d	619.18	1	8	24	3	56	i	n	636.03	1	1000	1000	0	0
018	2	62	N	N	f	352.64	0	8	24	4	56	i	j	468.89	1	1000	100	1	0
018	2	63	N	N	f	452.7	0	9	24	2	56	i	j	669.56	1	1000	100	0	0
018	2	64	P	P	d	1202.65	1	8	24	3	56	i	n	1186.35	1	100	1000	1	0
018	2	65	P	P	d	468.48	1	2	24	9	56	c	n	485.61	1	100	100	0	0
018	3	1	P	P	d	1085.67	1	3	24	9	56	c	n	651.19	1	1000	100	-1	0
018	3	2	P	P	d	618.9	1	4	24	8	56	c	n	452.48	1	100	100	0	0
018	3	3	N	N	f	552.41	0	3	24	9	56	c	n	802.79	1	1000	1000	1	0
018	3	4	P	P	d	669.8	1	2	24	8	56	c	n	402.45	1	1000	1000	1	0
018	3	5	N	N	f	719.83	0	4	56	8	24	i	n	435.73	1	1000	1000	1	0
018	3	6	N	N	f	669.08	0	8	24	2	56	i	j	435.4	1	100	1000	0	0
018	3	7	P	P	f	651.44	1	4	24	9	56	c	n	351.85	1	100	1000	1	0
018	3	8	P	P	d	702.34	1	3	24	7	56	c	n	567.94	1	1000	100	0	0
018	3	9	N	N	f	502.3	0	8	56	4	24	c	j	669.24	1	1000	1000	1	0
018	3	10	N	N	f	802.53	0	8	24	2	56	i	j	502.07	1	1000	100	0	0
018	3	11	N	N	f	485.79	0	7	56	4	24	c	j	502.36	1	100	1000	0	0
018	3	12	N	N	f	652.48	0	9	24	3	56	i	j	535.71	1	100	100	0	0
018	3	13	N	N	f	402.26	0	4	56	9	24	i	n	469.08	1	1000	1000	0	0
018	3	14	P	P	d	651.67	1	3	24	9	56	c	n	618.6	1	100	100	1	0
018	3	15	P	P	d	385.14	1	7	24	4	56	i	n	785.91	1	1000	100	0	0
018	3	16	N	N	d	518.27	0	8	24	3	56	i	j	752.1	1	1000	1000	1	0
018	3	17	N	N	f	668.82	0	2	24	8	56	c	n	534.87	1	1000	100	0	0
018	3	18	N	N	f	402.23	0	7	56	3	24	c	j	652.68	1	1000	1000	0	0
018	3	19	P	P	d	518.99	1	7	24	2	56	i	n	685.38	1	1000	1000	1	0
018	3	20	P	P	d	419.02	1	7	56	3	24	c	j	468.76	1	1000	1000	0	0
018	3	21	P	P	d	502.32	1	9	56	2	24	c	j	751.48	1	1000	100	0	0
018	3	22	P	P	d	535.41	1	3	56	9	24	i	j	603.04	1	100	1000	0	0
018	3	23	P	P	d	368.5	1	8	24	4	56	i	n	668.98	1	1000	1000	0	0
018	3	24	P	P	d	785.98	1	2	56	8	24	i	j	635.99	1	1000	100	0	0
018	3	25	N	N	f	669.0	0	9	56	4	24	c	j	534.96	1	1000	100	1	0
018	3	26	P	P	f	568.88	1	7	24	2	56	i	n	902.71	1	100	1000	1	0
018	3	27	P	P	d	719.26	1	4	24	9	56	c	n	435.5	1	1000	1000	0	0
018	3	28	N	N	f	418.63	0	8	24	2	56	i	j	752.62	1	1000	100	1	0
018	3	29	N	N	f	769.25	0	3	56	9	24	i	j	736.28	0	100	100	0	0
018	3	30	P	P	d	718.61	1	4	24	7	56	c	n	618.59	1	1000	100	1	1
018	3	31	P	P	d	518.8	1	3	56	9	24	i	j	452.32	1	100	100	0	0
018	3	32	N	N	d	418.8	0	4	24	8	56	c	n	1003.64	1	100	1000	1	0
018	3	33	P	P	d	1185.88	1	7	24	2	56	i	n	635.29	1	100	100	1	0
018	3	34	N	N	f	335.4	0	4	24	8	56	c	n	652.8	1	1000	100	1	0
018	3	35	P	P	d	585.98	1	9	24	2	56	i	n	1336.27	1	1000	100	1	0
018	3	36	P	P	d	752.48	1	7	24	4	56	i	n	418.96	1	100	1000	0	0
018	3	37	N	N	f	485.51	0	2	56	7	24	i	n	735.95	1	1000	100	1	0
018	3	38	P	P	d	519.3	1	4	56	7	24	i	j	434.17	1	1000	1000	1	0
018	3	39	P	P	d	568.07	1	8	24	2	56	i	n	536.13	1	100	100	0	0
018	3	40	P	P	d	452.09	1	3	24	7	56	c	n	385.34	1	100	1000	0	0
018	3	41	N	N	f	435.42	0	9	24	4	56	i	j	1069.8	1	100	1000	1	0
018	3	42	N	N	f	501.6	0	3	56	7	24	i	j	702.47	0	1000	100	0	0
018	3	43	P	P	d	569.69	1	8	56	2	24	c	j	501.7	1	1000	1000	1	1
018	3	44	N	N	d	885.75	0	8	56	4	24	c	j	635.98	1	100	1000	1	0
018	3	45	P	P	d	735.62	1	7	56	2	24	c	j	569.88	1	100	100	1	0
018	3	46	P	P	d	502.35	1	7	56	3	24	c	j	618.87	1	100	1000	0	0
018	3	47	P	P	f	1053.31	1	4	56	7	24	i	j	535.13	1	1000	1000	0	0
018	3	48	N	N	f	652.53	0	9	56	3	24	c	j	902.88	1	100	100	1	0
018	3	49	P	P	d	734.98	1	4	56	9	24	i	j	702.73	1	100	1000	1	0
018	3	50	N	N	f	636.27	0	2	24	9	56	c	n	752.2	1	100	100	1	0
018	3	51	N	N	f	852.51	0	3	24	7	56	c	n	752.67	1	100	1000	0	0
018	3	52	N	N	f	469.86	0	2	24	7	56	c	n	718.37	1	100	100	0	0
018	3	53	N	N	f	368.96	0	4	56	7	24	i	n	735.96	1	100	1000	0	0
018	3	54	N	N	f	802.86	0	7	56	2	24	c	j	635.92	1	1000	100	0	0
018	3	55	N	N	f	401.49	0	7	56	4	24	c	j	884.66	1	100	100	0	0
018	3	56	P	P	d	552.19	1	2	56	7	24	i	j	501.69	1	100	100	1	0
018	3	57	N	N	f	552.6	0	7	24	4	56	i	j	886.19	1	100	100	1	0
018	3	58	P	P	d	618.23	1	8	56	2	24	c	j	886.61	1	100	1000	1	0
018	3	59	N	N	f	636.21	0	4	56	9	24	i	n	568.9	1	100	1000	1	0
018	3	60	N	N	f	1153.08	0	3	24	9	56	c	n	435.28	1	1000	1000	0	0
018	3	61	N	N	f	552.5	0	7	24	4	56	i	j	602.59	1	1000	1000	0	0
018	3	62	P	P	f	569.46	1	8	56	3	24	c	j	1052.98	1	1000	100	1	0
018	3	63	P	P	d	852.59	1	9	56	2	24	c	j	451.91	1	100	100	0	0
018	3	64	N	N	f	469.11	0	3	56	8	24	i	n	585.88	1	100	100	1	0
018	3	65	P	P	d	986.11	1	4	56	7	24	i	j	1186.31	1	1000	100	1	0
018	4	1	P	P	d	869.97	1	9	56	3	24	c	j	585.41	1	100	100	-1	0
018	4	2	P	P	d	518.95	1	8	56	4	24	c	j	502.42	1	100	100	0	0
018	4	3	N	N	f	819.35	0	3	56	7	24	i	n	535.63	1	1000	100	1	0
018	4	4	P	P	d	519.15	1	2	56	8	24	i	j	952.87	1	100	100	1	0
018	4	5	N	N	f	986.22	0	7	56	4	24	c	j	987.0	1	1000	100	1	0
018	4	6	P	P	d	469.69	1	2	56	8	24	i	j	535.59	1	1000	1000	1	0
018	4	7	N	N	f	736.0	0	8	56	3	24	c	j	785.82	1	1000	1000	1	0
018	4	8	P	P	d	585.92	1	4	24	8	56	c	n	534.54	1	1000	1000	1	0
018	4	9	P	P	d	602.46	1	2	24	9	56	c	n	419.36	1	100	100	0	0
018	4	10	P	P	d	535.65	1	8	56	4	24	c	j	367.89	1	100	1000	0	0
018	4	11	P	P	d	467.86	1	7	56	3	24	c	j	435.98	1	1000	100	0	0
018	4	12	N	N	f	501.83	0	4	24	7	56	c	n	469.49	1	100	1000	1	0
018	4	13	N	N	f	568.94	0	3	56	8	24	i	n	769.2	1	1000	1000	0	0
018	4	14	P	P	d	569.23	1	8	56	4	24	c	j	401.89	1	100	1000	1	0
018	4	15	P	P	d	685.71	1	3	56	7	24	i	j	903.43	1	100	100	0	0
018	4	16	N	N	f	602.52	0	4	56	8	24	i	n	602.16	1	100	100	1	0
018	4	17	N	N	f	619.14	0	9	24	3	56	i	j	617.73	1	1000	100	0	0
018	4	18	P	P	d	986.37	1	4	24	9	56	c	n	852.7	1	1000	100	1	0
018	4	19	N	N	d	585.75	0	8	24	3	56	i	j	1419.95	1	100	100	1	0
018	4	20	P	P	d	769.45	1	2	24	9	56	c	n	435.82	1	100	100	1	0
018	4	21	P	P	d	852.79	1	8	24	4	56	i	n	752.64	1	1000	1000	0	0
018	4	22	N	N	f	702.65	0	9	56	2	24	c	j	468.65	1	100	100	1	0
018	4	23	N	N	f	853.26	0	8	56	3	24	c	j	869.36	1	100	100	0	0
018	4	24	N	N	f	752.56	0	2	56	8	24	i	n	1035.89	1	1000	100	0	0
018	4	25	P	P	d	719.27	1	4	56	8	24	i	j	435.65	1	100	1000	1	0
018	4	26	P	P	f	601.95	1	2	24	8	56	c	n	769.16	1	1000	1000	0	0
018	4	27	N	N	f	936.27	0	3	24	9	56	c	n	485.59	1	1000	100	1	0
018	4	28	N	N	f	669.11	0	9	24	2	56	i	n	718.31	0	1000	1000	0	0
018	4	29	N	N	f	552.08	0	8	24	3	56	i	j	735.24	1	100	100	0	1
018	4	30	P	P	d	635.69	1	7	24	4	56	i	n	518.98	1	1000	100	1	0
018	4	31	P	P	d	452.6	1	8	24	2	56	i	n	801.5	1	100	100	0	0
018	4	32	N	N	f	636.05	0	3	56	9	24	i	n	717.9	1	1000	1000	1	0
018	4	33	P	P	d	736.03	1	8	56	4	24	c	j	435.26	1	1000	1000	1	0
018	4	34	P	P	d	1236.37	1	8	24	2	56	i	n	702.94	1	100	1000	0	0
018	4	35	P	P	d	635.86	1	4	56	8	24	i	j	418.38	1	1000	1000	0	0
018	4	36	N	N	f	636.08	0	7	24	3	56	i	j	703.16	1	100	1000	1	0
018	4	37	N	N	f	552.42	0	4	56	8	24	i	n	886.19	1	100	1000	0	0
018	4	38	N	N	f	568.8	0	9	56	3	24	c	j	953.06	1	1000	100	0	0
018	4	39	N	N	f	584.49	0	4	24	8	56	c	n	1069.58	1	100	1000	0	0
018	4	40	P	P	d	485.79	1	7	24	3	56	i	n	352.21	1	100	1000	1	0
018	4	41	N	N	d	385.72	0	8	56	2	24	c	j	485.74	1	100	1000	1	0
018	4	42	P	P	d	969.63	1	9	56	4	24	c	j	435.14	1	1000	100	1	0
018	4	43	N	N	f	435.44	0	3	24	7	56	c	n	784.7	1	1000	1000	1	0
018	4	44	N	N	f	469.03	0	2	24	7	56	c	n	434.09	1	1000	1000	0	0
018	4	45	N	N	f	485.61	0	4	56	7	24	i	j	534.91	0	100	100	0	0
018	4	46	N	N	f	567.82	0	3	24	8	56	c	n	669.4	1	100	100	0	1
018	4	47	N	N	f	468.91	0	9	56	2	24	c	j	785.99	1	1000	1000	0	0
018	4	48	N	N	f	585.59	0	3	24	9	56	c	n	401.52	1	1000	100	0	0
018	4	49	P	P	d	418.97	1	8	24	2	56	i	n	369.13	1	1000	1000	1	0
018	4	50	P	P	d	1670.48	1	3	24	7	56	c	n	418.78	1	100	1000	0	0
018	4	51	P	P	f	786.32	1	7	24	2	56	i	n	1203.31	1	1000	100	0	0
018	4	52	N	N	f	652.05	0	3	24	8	56	c	n	1303.43	1	100	100	1	0
018	4	53	P	P	d	502.53	1	9	56	4	24	c	j	435.81	1	100	100	1	0
018	4	54	P	P	d	819.87	1	2	24	8	56	c	n	436.24	1	1000	100	0	0
018	4	55	P	P	d	469.45	1	4	56	9	24	i	j	385.31	1	1000	100	0	0
018	4	56	N	N	f	335.35	0	7	24	2	56	i	j	902.64	1	1000	1000	1	0
018	4	57	P	P	d	618.24	1	7	24	4	56	i	n	936.02	1	100	100	1	0
018	4	58	N	N	f	519.24	0	9	24	2	56	i	j	952.73	1	1000	100	1	0
018	4	59	N	N	f	568.98	0	8	24	4	56	i	j	618.61	1	100	1000	0	0
018	4	60	N	N	f	769.02	0	7	56	3	24	c	j	552.11	1	100	1000	0	0
018	4	61	P	P	d	619.16	1	2	24	7	56	c	n	435.54	1	100	1000	1	0
018	4	62	P	P	d	1136.97	1	7	56	3	24	c	j	551.13	1	1000	1000	0	0
018	4	63	P	P	d	1436.65	1	4	56	7	24	i	j	652.44	1	100	1000	0	0
018	4	64	N	N	f	752.66	0	2	56	7	24	i	j	1018.89	0	100	1000	1	0
018	4	65	P	P	d	619.39	1	3	56	7	24	i	j	785.92	1	1000	100	1	1
018	5	1	N	N	f	1453.76	0	8	24	4	56	i	j	769.09	1	1000	1000	-1	0
018	5	2	N	N	f	1085.98	0	2	24	9	56	c	n	468.93	1	1000	1000	0	0
018	5	3	N	N	f	485.98	0	3	56	7	24	i	n	752.54	1	100	100	0	0
018	5	4	N	N	f	435.5	0	8	56	2	24	c	j	453.02	1	1000	1000	0	0
018	5	5	P	P	d	619.77	1	7	24	3	56	i	n	820.07	1	1000	100	1	0
018	5	6	N	N	f	518.86	0	4	56	8	24	i	n	669.17	1	100	1000	1	0
018	5	7	P	P	d	586.04	1	3	24	7	56	c	n	669.01	1	100	100	1	0
018	5	8	P	P	d	753.15	1	8	24	2	56	i	n	752.32	1	1000	1000	0	0
018	5	9	P	P	d	485.94	1	4	24	7	56	c	n	685.61	1	1000	100	0	0
018	5	10	N	N	f	518.83	0	8	24	2	56	i	j	434.78	1	100	1000	1	0
018	5	11	P	P	d	701.89	1	4	24	9	56	c	n	418.87	1	100	1000	1	0
018	5	12	P	P	d	569.14	1	2	24	7	56	c	n	652.19	1	100	100	0	0
018	5	13	N	N	f	568.62	0	4	24	7	56	c	n	919.48	1	1000	1000	1	0
018	5	14	P	P	d	1153.14	1	8	24	2	56	i	n	852.48	1	100	100	1	0
018	5	15	N	N	f	485.72	0	7	56	3	24	c	j	502.46	1	1000	100	1	0
018	5	16	P	P	d	719.31	1	7	24	4	56	i	n	886.03	1	1000	1000	1	0
018	5	17	P	P	d	1053.06	1	3	24	8	56	c	n	619.74	1	1000	1000	0	0
018	5	18	P	P	d	735.86	1	2	56	8	24	i	j	819.32	1	100	1000	0	0
018	5	19	P	P	d	435.62	1	3	56	7	24	i	j	652.04	1	100	100	0	0
018	5	20	P	P	d	385.57	1	7	24	4	56	i	n	384.49	1	100	100	0	0
018	5	21	P	P	d	402.17	1	8	56	2	24	c	j	401.8	1	100	100	0	0
018	5	22	N	N	f	635.63	0	7	24	3	56	i	j	669.05	1	100	100	1	0
018	5	23	N	N	f	468.47	0	8	24	2	56	i	j	585.97	1	100	100	0	0
018	5	24	P	P	d	585.1	1	3	56	8	24	i	j	836.25	1	1000	1000	1	0
018	5	25	P	P	d	553.03	1	4	56	9	24	i	j	619.32	1	1000	1000	0	0
018	5	26	P	P	d	1420.04	1	3	24	9	56	c	n	619.58	1	100	1000	0	0
018	5	27	P	P	d	851.59	1	7	56	2	24	c	j	485.48	1	1000	1000	0	0
018	5	28	N	N	f	1002.36	0	4	24	9	56	c	n	602.37	1	1000	100	1	0
018	5	29	N	N	f	602.66	0	2	24	7	56	c	n	602.7	1	1000	100	0	0
018	5	30	N	N	f	936.43	0	9	56	4	24	c	j	502.35	1	1000	100	0	0
018	5	31	P	P	d	735.63	1	2	56	9	24	i	j	383.97	1	100	1000	1	0
018	5	32	N	N	f	519.12	0	4	56	7	24	i	n	552.41	1	1000	1000	1	0
018	5	33	P	P	d	568.97	1	8	56	2	24	c	j	1202.5	1	1000	1000	1	0
018	5	34	N	N	f	552.91	0	8	56	3	24	c	j	769.3	1	100	100	1	0
018	5	35	N	N	f	669.32	0	9	56	4	24	c	j	752.71	1	100	1000	0	0
018	5	36	N	N	f	635.89	0	7	24	3	56	i	j	653.19	1	1000	1000	0	0
018	5	37	P	P	d	718.82	1	8	56	2	24	c	j	568.8	1	1000	100	1	0
018	5	38	N	N	d	585.19	0	8	56	4	24	c	j	435.71	1	100	1000	1	0
018	5	39	P	P	d	1002.68	1	9	24	3	56	i	n	669.9	1	100	1000	1	0
018	5	40	P	P	d	569.02	1	7	56	2	24	c	j	569.12	1	100	1000	0	0
018	5	41	N	N	f	619.38	0	8	56	4	24	c	j	1053.01	1	1000	1000	1	0
018	5	42	P	P	d	719.33	1	3	56	7	24	i	n	1152.98	0	1000	100	1	0
018	5	43	P	P	d	502.42	1	8	24	4	56	i	n	1068.41	1	1000	100	0	1
018	5	44	N	N	f	635.96	0	3	56	8	24	i	n	952.67	1	1000	100	1	0
018	5	45	P	P	d	852.74	1	9	56	2	24	c	j	569.17	1	100	100	1	0
018	5	46	N	N	f	1252.82	0	8	24	3	56	i	j	752.17	1	1000	100	1	0
018	5	47	N	N	f	586.66	0	7	24	2	56	i	j	485.54	1	100	1000	0	0
018	5	48	P	P	d	601.96	1	3	24	8	56	c	n	685.63	1	1000	1000	1	0
018	5	49	P	P	d	685.98	1	4	56	7	24	i	j	1002.43	1	1000	100	0	0
018	5	50	P	P	d	535.15	1	7	24	3	56	i	n	485.76	1	100	1000	0	0
018	5	51	N	N	f	752.27	0	2	24	8	56	c	n	585.73	1	100	100	1	0
018	5	52	N	N	f	685.72	0	4	56	8	24	i	j	703.03	0	1000	1000	0	0
018	5	53	N	N	f	852.76	0	2	56	7	24	i	n	552.05	1	100	1000	0	1
018	5	54	N	N	f	1069.7	0	9	24	4	56	i	j	4739.94	1	1000	100	0	0
018	5	55	N	N	f	785.06	0	2	24	8	56	c	n	701.93	1	100	100	0	0
018	5	56	N	N	f	786.02	0	4	24	7	56	c	n	885.98	1	100	1000	0	0
018	5	57	P	P	d	468.95	1	2	24	9	56	c	n	635.99	1	1000	100	1	0
018	5	58	N	N	f	551.35	0	4	56	8	24	i	j	485.67	0	100	100	1	0
018	5	59	P	P	d	552.9	1	3	56	9	24	i	j	853.6	1	100	100	1	1
018	5	60	N	N	f	586.12	0	8	24	4	56	i	j	468.69	1	1000	1000	1	0
018	5	61	N	N	f	535.37	0	9	56	2	24	c	j	485.6	1	100	100	0	0
018	5	62	P	P	f	519.52	1	8	56	3	24	c	j	334.49	1	100	1000	1	0
018	5	63	P	P	d	569.26	1	8	56	4	24	c	j	502.8	1	1000	100	0	0
018	5	64	N	N	f	518.63	0	2	24	9	56	c	n	535.66	1	100	1000	1	0
018	5	65	N	N	f	535.21	0	3	56	7	24	i	n	536.31	1	1000	100	0	0
018	6	1	P	P	d	3155.27	1	4	56	9	24	i	j	1236.3	1	100	1000	-1	0
018	6	2	N	N	f	435.54	0	8	24	3	56	i	j	1068.42	1	1000	100	1	0
018	6	3	P	P	d	602.74	1	2	24	8	56	c	n	469.0	1	1000	100	1	0
018	6	4	P	P	d	819.53	1	3	56	8	24	i	j	2337.97	1	1000	1000	0	0
018	6	5	P	P	d	852.75	1	8	24	2	56	i	n	702.91	1	100	100	0	0
018	6	6	N	N	f	452.1	0	8	24	3	56	i	j	534.3	1	100	1000	1	0
018	6	7	P	P	d	702.95	1	4	56	7	24	i	j	451.92	1	100	1000	1	0
018	6	8	N	N	f	518.54	0	9	56	3	24	c	j	652.27	1	1000	100	1	0
018	6	9	P	P	d	768.59	1	2	24	7	56	c	n	551.69	1	1000	1000	1	0
018	6	10	N	N	f	552.32	0	4	24	9	56	c	n	1019.43	1	100	100	1	0
018	6	11	N	N	d	836.05	0	2	24	8	56	c	n	368.94	1	100	1000	0	0
018	6	12	N	N	f	635.65	0	4	56	8	24	i	j	702.85	0	1000	1000	0	0
018	6	13	P	P	d	552.72	1	3	56	7	24	i	j	584.49	1	1000	100	1	1
018	6	14	P	P	d	536.3	1	2	56	8	24	i	j	468.25	1	100	1000	0	0
018	6	15	N	N	f	568.74	0	3	24	8	56	c	n	502.76	1	1000	1000	1	0
018	6	16	P	P	d	685.79	1	8	24	4	56	i	n	586.07	1	100	100	1	0
018	6	17	N	N	f	435.8	0	3	24	9	56	c	n	685.65	1	100	1000	1	0
018	6	18	N	N	f	969.58	0	9	24	2	56	i	n	385.98	0	100	100	0	0
018	6	19	P	P	d	552.73	1	7	24	3	56	i	n	535.15	1	1000	100	1	1
018	6	20	N	N	f	536.36	0	8	24	2	56	i	j	585.66	1	100	100	1	0
018	6	21	N	N	f	551.51	0	4	56	8	24	i	n	635.7	1	100	100	0	0
018	6	22	P	P	d	435.63	1	9	56	3	24	c	j	886.8	1	1000	100	1	0
018	6	23	P	P	d	402.16	1	7	56	4	24	c	j	468.69	1	100	100	0	0
018	6	24	P	P	d	569.04	1	9	56	3	24	c	j	452.38	1	1000	100	0	0
018	6	25	N	N	f	534.86	0	7	56	4	24	c	j	452.47	1	1000	1000	1	0
018	6	26	P	P	d	501.9	1	9	56	2	24	c	j	534.97	1	100	100	1	0
018	6	27	N	N	f	536.0	0	7	56	3	24	c	j	486.15	1	100	100	1	0
018	6	28	N	N	f	667.76	0	4	56	9	24	i	n	869.29	1	100	1000	0	0
018	6	29	N	N	f	618.63	0	8	56	2	24	c	j	468.44	1	1000	100	0	0
018	6	30	P	P	d	519.19	1	3	24	9	56	c	n	452.42	1	100	100	1	0
018	6	31	N	N	f	602.46	0	2	56	8	24	i	n	603.28	1	1000	100	1	0
018	6	32	P	P	d	635.65	1	8	56	4	24	c	j	1002.72	1	100	1000	1	0
018	6	33	P	P	d	635.58	1	7	24	3	56	i	n	868.48	1	1000	1000	0	0
018	6	34	P	P	d	786.02	1	8	24	2	56	i	n	569.12	1	100	1000	0	0
018	6	35	N	N	f	785.81	0	4	24	9	56	c	n	602.34	1	1000	100	1	0
018	6	36	N	N	f	435.45	0	2	24	8	56	c	n	485.17	1	1000	1000	0	0
018	6	37	P	P	f	585.72	1	7	24	4	56	i	n	368.86	1	1000	1000	1	0
018	6	38	P	P	d	819.24	1	2	56	9	24	i	j	635.55	1	100	100	0	0
018	6	39	P	P	d	450.92	1	9	56	4	24	c	j	453.38	1	1000	1000	0	0
018	6	40	N	N	f	785.31	0	8	24	2	56	i	j	818.5	1	1000	1000	1	0
018	6	41	P	P	d	684.52	1	8	24	4	56	i	n	419.27	1	100	1000	1	0
018	6	42	N	N	f	468.85	0	7	56	2	24	c	j	419.5	1	100	1000	1	0
018	6	43	N	N	f	519.06	0	3	24	8	56	c	n	535.51	1	100	100	0	0
018	6	44	P	P	d	435.9	1	2	24	9	56	c	n	352.19	1	100	1000	1	0
018	6	45	N	N	f	368.61	0	4	56	7	24	i	n	885.12	1	100	1000	1	0
018	6	46	N	N	f	535.72	0	7	56	2	24	c	j	451.73	1	100	1000	0	0
018	6	47	N	N	f	519.06	0	4	24	9	56	c	n	435.49	1	1000	100	0	0
018	6	48	N	N	f	368.7	0	9	56	2	24	c	j	584.4	1	1000	1000	0	0
018	6	49	P	P	f	586.16	1	3	56	8	24	i	n	869.74	0	100	100	1	0
018	6	50	P	P	d	684.5	1	7	56	2	24	c	j	518.7	1	100	1000	0	1
018	6	51	N	N	f	352.08	0	4	56	7	24	i	n	552.43	1	1000	1000	1	0
018	6	52	N	N	f	1236.47	0	7	24	2	56	i	j	952.95	1	1000	1000	0	0
018	6	53	N	N	f	569.18	0	8	24	4	56	i	j	535.73	1	1000	100	0	0
018	6	54	P	P	d	635.71	1	3	56	8	24	i	j	1069.65	1	1000	1000	1	0
018	6	55	P	P	d	2454.35	1	2	24	8	56	c	n	401.33	1	100	1000	0	0
018	6	56	N	N	f	552.01	0	4	56	9	24	i	n	802.74	1	100	100	1	0
018	6	57	N	N	d	1002.87	0	3	56	9	24	i	n	1536.62	1	1000	100	0	0
018	6	58	N	N	f	835.62	0	8	56	2	24	c	j	619.32	1	100	100	0	0
018	6	59	N	N	f	519.17	0	7	24	3	56	i	j	619.11	1	100	1000	0	0
018	6	60	P	P	d	702.7	1	7	56	4	24	c	j	502.28	1	1000	1000	1	0
018	6	61	P	P	d	569.41	1	3	24	8	56	c	n	418.82	1	1000	100	0	0
018	6	62	P	P	d	551.7	1	4	24	7	56	c	n	352.29	1	1000	1000	0	0
018	6	63	P	P	d	651.89	1	2	56	7	24	i	j	736.09	1	1000	100	0	0
018	6	64	P	P	d	720.09	1	7	24	4	56	i	n	1120.13	1	1000	100	0	0
018	6	65	P	P	d	535.72	1	2	24	8	56	c	n	519.24	1	100	100	0	0
