subj	block	trial	task_cue	task	choice_resp	choiceRT	choice_acc	topnum	topsize	botnum	botsize	cong	task_resp	taskRT	task_acc	RSI	CSI	altRep	E1
021	1	1	?	N	d	685.64	NA	4	56	7	24	i	n	2203.67	1	1000	1000	-1	0
021	1	2	?	P	f	2120.86	NA	7	56	3	24	c	j	2154.58	1	100	1000	0	0
021	1	3	?	P	f	1052.85	NA	9	24	4	56	i	n	886.06	1	100	1000	0	0
021	1	4	?	P	f	1586.7	NA	2	24	8	56	c	n	1419.85	1	1000	1000	0	0
021	1	5	?	N	d	1303.09	NA	4	24	8	56	c	n	569.21	1	1000	1000	0	0
021	1	6	?	N	d	618.74	NA	3	24	8	56	c	n	401.8	1	100	1000	0	0
021	1	7	?	N	d	669.73	NA	8	56	4	24	c	j	518.98	1	100	1000	0	0
021	1	8	?	P	f	1219.7	NA	9	56	2	24	c	j	719.07	1	100	100	0	0
021	1	9	?	P	f	902.21	NA	4	24	7	56	c	n	752.5	1	100	100	0	0
021	1	10	?	P	f	318.5	NA	9	24	2	56	i	n	818.75	1	1000	100	0	0
021	1	11	?	N	d	669.01	NA	8	24	3	56	i	j	686.46	1	100	1000	0	0
021	1	12	?	N	d	535.57	NA	2	24	9	56	c	n	885.27	1	100	1000	0	0
021	1	13	?	N	d	969.14	NA	7	24	4	56	i	j	668.17	1	100	1000	0	0
021	1	14	?	P	f	452.04	NA	7	56	2	24	c	j	886.2	1	1000	1000	0	0
021	1	15	?	P	f	585.66	NA	3	24	7	56	c	n	719.09	1	100	100	0	0
021	1	16	?	P	f	468.96	NA	7	56	2	24	c	j	535.28	1	100	100	0	0
021	1	17	?	N	d	502.94	NA	4	56	9	24	i	n	702.68	1	1000	100	0	0
021	1	18	?	N	d	285.36	NA	3	24	7	56	c	n	569.16	1	1000	1000	0	0
021	1	19	?	P	f	668.76	NA	7	24	2	56	i	n	1269.87	1	1000	100	0	0
021	1	20	?	P	f	719.14	NA	9	24	4	56	i	n	452.48	1	100	1000	0	0
021	1	21	?	P	f	568.5	NA	8	24	3	56	i	n	601.55	1	100	1000	0	0
021	1	22	?	N	d	453.16	NA	2	56	8	24	i	n	1269.72	1	100	100	0	0
021	1	23	?	P	f	718.75	NA	9	56	3	24	c	n	936.26	0	1000	1000	0	0
021	1	24	?	P	f	2137.34	NA	2	56	9	24	i	j	919.45	1	1000	100	0	1
021	1	25	?	N	d	468.78	NA	7	24	3	56	i	j	1403.65	1	1000	100	0	0
021	1	26	?	N	d	335.36	NA	9	24	2	56	i	j	1069.54	1	1000	100	0	0
021	1	27	?	P	f	835.7	NA	4	56	9	24	i	n	953.0	0	100	100	0	0
021	1	28	?	P	f	302.19	NA	8	24	3	56	i	n	636.05	1	1000	100	0	1
021	1	29	?	P	f	735.9	NA	2	24	8	56	c	n	819.03	1	100	100	0	0
021	1	30	?	P	f	519.26	NA	7	56	3	24	c	j	702.52	1	100	1000	0	0
021	1	31	?	N	d	18.01	NA	2	56	7	24	i	n	1636.06	1	1000	1000	0	0
021	1	32	?	N	d	869.81	NA	8	24	4	56	i	j	835.9	1	100	1000	0	0
021	1	33	?	N	d	1987.21	NA	9	56	2	24	c	j	785.96	1	100	100	0	0
021	1	34	?	P	f	569.12	NA	4	56	7	24	i	n	819.37	0	100	100	0	0
021	1	35	?	P	f	919.31	NA	7	56	2	24	c	j	685.99	1	1000	1000	0	1
021	1	36	?	P	f	535.23	NA	9	24	4	56	i	n	585.62	1	100	1000	0	0
021	1	37	?	N	d	417.95	NA	8	24	3	56	i	j	652.03	1	1000	1000	0	0
021	1	38	?	N	d	352.12	NA	7	56	4	24	c	j	819.34	1	1000	100	0	0
021	1	39	?	N	d	285.19	NA	8	56	2	24	c	j	552.42	1	1000	1000	0	0
021	1	40	?	P	f	1503.64	NA	8	56	4	24	c	j	619.19	1	100	1000	0	0
021	1	41	?	P	f	418.95	NA	2	24	8	56	c	n	719.31	1	1000	100	0	0
021	1	42	?	P	f	685.07	NA	8	24	3	56	i	n	569.52	1	100	100	0	0
021	1	43	?	P	f	635.64	NA	2	24	9	56	c	n	535.85	1	100	1000	0	0
021	1	44	?	N	d	1219.03	NA	3	56	9	24	i	n	634.3	1	1000	1000	0	0
021	1	45	?	N	d	501.01	NA	8	24	4	56	i	j	819.34	1	100	100	0	0
021	1	46	?	N	d	418.79	NA	2	56	9	24	i	n	669.49	1	100	100	0	0
021	1	47	?	P	f	335.21	NA	4	56	9	24	i	j	635.66	1	1000	1000	0	0
021	1	48	?	P	f	936.01	NA	3	56	7	24	i	j	752.79	1	1000	1000	0	0
021	1	49	?	N	d	568.93	NA	8	56	2	24	c	j	1219.87	1	1000	100	0	0
021	1	50	?	P	f	17.96	NA	3	56	9	24	i	j	1070.07	1	1000	1000	0	0
021	1	51	?	N	d	1202.93	NA	2	24	8	56	c	n	3038.72	1	100	100	0	0
021	1	52	?	P	f	552.23	NA	9	56	4	24	c	j	767.88	1	1000	100	0	0
021	1	53	?	P	f	18.36	NA	3	24	9	56	c	j	602.41	0	1000	100	0	0
021	1	54	?	P	f	235.26	NA	2	56	7	24	i	j	568.33	1	1000	100	0	1
021	1	55	?	N	d	469.37	NA	3	24	7	56	c	n	685.82	1	100	1000	0	0
021	1	56	?	P	f	585.74	NA	9	56	4	24	c	j	1536.62	1	100	100	0	0
021	1	57	?	N	d	418.77	NA	2	56	9	24	i	n	1570.22	1	100	100	0	0
021	1	58	?	N	d	619.16	NA	3	24	8	56	c	n	602.33	1	1000	100	0	0
021	1	59	?	N	d	635.48	NA	4	24	8	56	c	n	1002.91	1	1000	100	0	0
021	1	60	?	N	d	469.0	NA	2	24	9	56	c	n	517.77	1	1000	1000	0	0
021	1	61	?	P	f	434.09	NA	9	24	3	56	i	n	735.81	1	1000	1000	0	0
021	1	62	?	P	f	385.58	NA	8	56	2	24	c	j	652.41	1	1000	100	0	0
021	1	63	?	P	f	301.89	NA	8	24	4	56	i	n	702.41	1	1000	1000	0	0
021	1	64	?	N	d	418.6	NA	9	24	2	56	i	j	986.27	1	100	1000	0	0
021	1	65	?	P	f	986.11	NA	4	56	8	24	i	j	1202.41	1	100	100	0	0
021	2	1	?	N	d	702.57	NA	8	56	2	24	c	j	1503.6	1	1000	1000	-1	0
021	2	2	?	N	d	919.21	NA	7	56	3	24	c	j	602.67	1	1000	1000	0	0
021	2	3	?	N	d	302.16	NA	9	24	2	56	i	j	618.98	1	1000	1000	0	0
021	2	4	?	P	f	485.57	NA	3	56	8	24	i	j	652.35	1	100	1000	0	0
021	2	5	?	P	f	718.74	NA	2	56	8	24	i	j	1102.94	1	100	1000	0	0
021	2	6	?	N	d	619.44	NA	9	56	4	24	c	j	851.9	1	1000	1000	0	0
021	2	7	?	P	f	302.47	NA	8	24	2	56	i	n	952.82	1	1000	100	0	0
021	2	8	?	P	f	333.49	NA	3	24	9	56	c	n	585.53	1	1000	1000	0	0
021	2	9	?	P	f	802.65	NA	9	56	2	24	c	j	452.55	1	100	1000	0	0
021	2	10	?	N	d	351.92	NA	3	56	7	24	i	n	1036.36	1	1000	1000	0	0
021	2	11	?	N	d	101.75	NA	4	56	8	24	i	n	902.91	1	1000	1000	0	0
021	2	12	?	P	f	301.93	NA	7	24	3	56	i	n	902.16	1	1000	100	0	0
021	2	13	?	P	f	385.19	NA	9	56	2	24	c	j	886.25	1	1000	1000	0	0
021	2	14	?	N	d	818.79	NA	3	56	7	24	i	n	769.41	1	100	100	0	0
021	2	15	?	N	d	468.87	NA	4	56	9	24	i	n	585.89	1	100	100	0	0
021	2	16	?	N	d	335.44	NA	8	56	3	24	c	j	1987.44	1	100	100	0	0
021	2	17	?	P	f	652.46	NA	4	56	7	24	i	j	585.34	1	100	100	0	0
021	2	18	?	P	f	235.23	NA	9	24	2	56	i	n	635.87	1	100	100	0	0
021	2	19	?	P	f	635.86	NA	3	24	7	56	c	n	752.88	1	1000	100	0	0
021	2	20	?	P	f	435.51	NA	9	56	4	24	c	j	502.42	1	100	1000	0	0
021	2	21	?	P	f	352.11	NA	2	24	7	56	c	n	486.06	1	100	1000	0	0
021	2	22	?	N	d	385.41	NA	3	56	7	24	i	n	619.25	1	100	1000	0	0
021	2	23	?	N	d	269.06	NA	4	24	9	56	c	n	786.15	1	100	100	0	0
021	2	24	?	N	d	18.31	NA	8	24	3	56	i	j	1103.06	1	1000	100	0	0
021	2	25	?	P	f	51.41	NA	4	24	8	56	c	n	1119.94	1	1000	100	0	0
021	2	26	?	P	f	401.85	NA	8	56	3	24	c	j	602.46	1	1000	100	0	0
021	2	27	?	P	f	335.31	NA	2	24	8	56	c	n	519.37	1	1000	100	0	0
021	2	28	?	N	d	268.45	NA	9	24	4	56	i	j	1436.42	1	100	100	0	0
021	2	29	?	P	f	435.9	NA	8	56	2	24	c	j	668.94	1	1000	100	0	0
021	2	30	?	N	d	502.36	NA	3	56	7	24	i	n	552.61	1	100	1000	0	0
021	2	31	?	N	d	301.75	NA	4	56	9	24	i	n	585.82	1	100	100	0	0
021	2	32	?	N	d	285.35	NA	3	56	7	24	i	n	535.76	1	100	1000	0	0
021	2	33	?	N	d	352.17	NA	9	24	2	56	i	j	1737.2	1	100	100	0	0
021	2	34	?	P	f	469.02	NA	4	24	9	56	c	j	752.8	0	100	100	0	0
021	2	35	?	P	f	635.61	NA	3	24	7	56	c	n	469.43	1	100	1000	0	1
021	2	36	?	P	f	367.75	NA	2	24	9	56	c	n	602.82	1	1000	1000	0	0
021	2	37	?	P	f	401.88	NA	3	24	7	56	c	n	751.74	1	1000	100	0	0
021	2	38	?	P	f	301.42	NA	7	24	2	56	i	n	485.69	1	1000	1000	0	0
021	2	39	?	N	d	368.91	NA	9	56	4	24	c	j	652.59	1	100	1000	0	0
021	2	40	?	P	f	419.08	NA	9	56	2	24	c	j	552.53	1	100	100	0	0
021	2	41	?	P	f	285.37	NA	4	56	8	24	i	n	1052.99	0	100	1000	0	0
021	2	42	?	P	f	1770.27	NA	9	56	3	24	c	j	769.11	1	1000	100	0	1
021	2	43	?	P	f	284.0	NA	2	56	9	24	i	j	1720.38	1	1000	1000	0	0
021	2	44	?	P	f	485.05	NA	7	24	4	56	i	n	569.1	1	100	1000	0	0
021	2	45	?	N	d	418.95	NA	8	24	3	56	i	j	851.23	1	1000	100	0	0
021	2	46	?	N	d	601.7	NA	9	24	2	56	i	j	635.69	1	1000	100	0	0
021	2	47	?	P	f	602.38	NA	4	56	7	24	i	j	668.67	1	100	1000	0	0
021	2	48	?	N	d	335.54	NA	8	24	2	56	i	j	1353.34	1	1000	1000	0	0
021	2	49	?	N	d	368.77	NA	8	56	3	24	c	j	652.18	1	1000	100	0	0
021	2	50	?	P	f	1053.16	NA	9	24	2	56	i	n	635.65	1	1000	100	0	0
021	2	51	?	P	f	368.4	NA	3	24	8	56	c	n	552.35	1	1000	1000	0	0
021	2	52	?	P	f	118.57	NA	7	24	2	56	i	n	1552.06	1	1000	100	0	0
021	2	53	?	P	f	251.52	NA	3	56	7	24	i	j	1486.59	1	1000	100	0	0
021	2	54	?	N	d	218.51	NA	4	24	9	56	c	n	1301.9	1	1000	1000	0	0
021	2	55	?	N	d	902.46	NA	3	24	7	56	c	n	502.46	1	100	1000	0	0
021	2	56	?	N	d	1486.5	NA	2	24	9	56	c	n	469.11	1	100	100	0	0
021	2	57	?	P	f	402.36	NA	7	56	3	24	c	j	919.71	1	100	1000	0	0
021	2	58	?	P	f	452.18	NA	9	56	4	24	c	j	401.92	1	100	100	0	0
021	2	59	?	P	f	284.5	NA	8	24	2	56	i	n	335.17	1	1000	1000	0	0
021	2	60	?	N	d	401.59	NA	3	24	9	56	c	n	852.84	1	100	1000	0	0
021	2	61	?	N	d	268.47	NA	7	56	2	24	c	j	669.82	1	1000	1000	0	0
021	2	62	?	P	f	535.67	NA	4	56	7	24	i	j	400.91	1	1000	1000	0	0
021	2	63	?	P	f	418.58	NA	3	24	7	56	c	n	518.0	1	100	100	0	0
021	2	64	?	P	f	402.22	NA	4	56	7	24	i	j	635.88	1	100	100	0	0
021	2	65	?	P	f	385.66	NA	9	56	3	24	c	j	502.56	1	100	100	0	0
021	3	1	?	N	d	719.19	NA	7	56	2	24	c	j	869.34	1	1000	100	-1	0
021	3	2	?	N	d	317.71	NA	9	56	3	24	c	j	435.56	1	100	100	0	0
021	3	3	?	P	f	185.22	NA	2	24	8	56	c	n	518.85	1	1000	1000	0	0
021	3	4	?	P	f	334.68	NA	4	24	9	56	c	n	419.22	1	1000	1000	0	0
021	3	5	?	N	d	434.82	NA	3	24	9	56	c	n	735.84	1	1000	100	0	0
021	3	6	?	N	d	1302.26	NA	2	24	7	56	c	n	452.39	1	100	1000	0	0
021	3	7	?	N	d	51.27	NA	7	56	4	24	c	j	535.82	1	1000	100	0	0
021	3	8	?	P	f	335.24	NA	9	56	2	24	c	j	552.26	1	1000	1000	0	0
021	3	9	?	P	f	518.91	NA	9	24	3	56	i	n	584.25	1	100	1000	0	0
021	3	10	?	P	f	285.51	NA	4	56	9	24	i	j	469.08	1	1000	100	0	0
021	3	11	?	N	d	517.81	NA	7	24	2	56	i	j	836.05	1	100	100	0	0
021	3	12	?	N	d	551.31	NA	3	56	7	24	i	j	1168.33	0	100	100	0	0
021	3	13	?	P	f	1919.03	NA	7	24	2	56	i	n	569.22	1	1000	1000	0	1
021	3	14	?	P	f	368.55	NA	3	56	8	24	i	j	770.04	1	1000	100	0	0
021	3	15	?	P	f	1069.53	NA	9	56	2	24	c	j	502.26	1	1000	100	0	0
021	3	16	?	N	d	402.02	NA	8	24	4	56	i	j	902.74	1	1000	100	0	0
021	3	17	?	N	d	485.54	NA	3	56	7	24	i	j	585.98	0	100	1000	0	0
021	3	18	?	N	d	418.8	NA	4	24	7	56	c	n	718.57	1	1000	1000	0	1
021	3	19	?	N	d	385.52	NA	2	56	7	24	i	n	869.39	1	1000	100	0	0
021	3	20	?	P	f	452.54	NA	8	56	4	24	c	j	385.47	1	1000	1000	0	0
021	3	21	?	P	f	268.28	NA	8	56	3	24	c	j	485.54	1	1000	100	0	0
021	3	22	?	P	f	502.03	NA	4	24	9	56	c	n	618.16	1	100	100	0	0
021	3	23	?	P	f	852.44	NA	2	24	9	56	c	n	402.36	1	100	1000	0	0
021	3	24	?	N	d	252.08	NA	3	24	7	56	c	n	618.49	1	1000	100	0	0
021	3	25	?	N	d	233.42	NA	9	24	4	56	i	j	669.38	1	1000	1000	0	0
021	3	26	?	N	d	152.06	NA	9	56	3	24	c	j	635.84	1	1000	100	0	0
021	3	27	?	N	d	468.47	NA	7	24	2	56	i	j	1119.4	1	100	1000	0	0
021	3	28	?	P	f	218.59	NA	7	24	4	56	i	n	435.59	1	1000	1000	0	0
021	3	29	?	P	f	467.95	NA	3	24	7	56	c	n	685.93	1	100	1000	0	0
021	3	30	?	N	d	802.7	NA	9	56	4	24	c	j	1085.99	1	100	1000	0	0
021	3	31	?	P	f	1085.84	NA	8	24	3	56	i	n	1586.75	1	100	100	0	0
021	3	32	?	N	d	268.07	NA	4	24	7	56	c	n	586.03	1	1000	100	0	0
021	3	33	?	N	d	218.56	NA	8	24	2	56	i	j	751.01	1	1000	1000	0	0
021	3	34	?	P	f	802.41	NA	3	56	9	24	i	j	551.94	1	100	100	0	0
021	3	35	?	P	f	368.81	NA	4	24	8	56	c	n	568.75	1	100	1000	0	0
021	3	36	?	P	f	468.88	NA	3	56	8	24	i	j	585.6	1	100	100	0	0
021	3	37	?	N	d	518.62	NA	7	56	2	24	c	j	1320.02	1	100	1000	0	0
021	3	38	?	N	d	435.24	NA	9	24	4	56	i	j	569.09	1	100	1000	0	0
021	3	39	?	N	d	284.97	NA	2	56	9	24	i	n	618.9	1	1000	100	0	0
021	3	40	?	P	f	468.62	NA	3	24	8	56	c	n	618.57	1	100	100	0	0
021	3	41	?	P	f	335.56	NA	7	24	4	56	i	n	1369.79	1	100	100	0	0
021	3	42	?	P	f	585.12	NA	7	56	2	24	c	j	519.02	1	1000	1000	0	0
021	3	43	?	N	d	251.6	NA	8	56	4	24	c	j	686.07	1	100	100	0	0
021	3	44	?	N	d	619.06	NA	7	24	3	56	i	j	534.77	1	1000	1000	0	0
021	3	45	?	N	d	502.12	NA	2	24	9	56	c	n	568.86	1	1000	100	0	0
021	3	46	?	P	f	517.34	NA	9	24	3	56	i	n	652.62	1	1000	100	0	0
021	3	47	?	P	f	252.06	NA	8	24	2	56	i	n	569.58	1	1000	100	0	0
021	3	48	?	P	f	302.09	NA	9	56	3	24	c	j	635.39	1	1000	1000	0	0
021	3	49	?	N	d	719.06	NA	4	56	9	24	i	n	736.15	1	100	1000	0	0
021	3	50	?	N	d	435.45	NA	8	56	2	24	c	j	652.29	1	100	1000	0	0
021	3	51	?	N	d	485.42	NA	4	24	7	56	c	n	552.15	1	100	100	0	0
021	3	52	?	N	d	418.69	NA	2	24	8	56	c	n	452.51	1	100	100	0	0
021	3	53	?	N	d	534.84	NA	8	56	3	24	c	j	519.18	1	100	100	0	0
021	3	54	?	P	f	952.93	NA	7	56	2	24	c	j	634.95	1	100	100	0	0
021	3	55	?	P	f	518.93	NA	8	24	3	56	i	n	702.6	1	100	1000	0	0
021	3	56	?	N	d	468.02	NA	7	24	4	56	i	j	535.55	1	100	1000	0	0
021	3	57	?	N	d	235.62	NA	3	56	8	24	i	n	1069.61	1	1000	1000	0	0
021	3	58	?	N	d	451.62	NA	4	56	8	24	i	n	684.36	1	100	100	0	0
021	3	59	?	N	d	301.28	NA	8	24	2	56	i	j	635.94	1	100	1000	0	0
021	3	60	?	P	f	351.89	NA	4	56	9	24	i	j	602.75	1	1000	1000	0	0
021	3	61	?	P	f	252.92	NA	2	24	8	56	c	j	652.55	0	1000	1000	0	0
021	3	62	?	P	f	283.84	NA	3	56	8	24	i	j	769.1	1	1000	100	0	1
021	3	63	?	P	f	335.56	NA	7	24	4	56	i	n	536.02	1	1000	1000	0	0
021	3	64	?	N	d	369.04	NA	7	56	2	24	c	j	650.94	1	100	1000	0	0
021	3	65	?	N	d	352.15	NA	7	24	3	56	i	j	1086.18	1	100	100	0	0
021	4	1	?	P	f	2720.45	NA	7	56	3	24	c	j	702.58	1	1000	100	-1	0
021	4	2	?	P	f	1069.48	NA	9	56	4	24	c	j	436.1	1	100	100	0	0
021	4	3	?	P	f	301.91	NA	8	24	2	56	i	n	819.46	1	1000	1000	0	0
021	4	4	?	N	d	84.99	NA	8	24	4	56	i	j	469.01	1	1000	1000	0	0
021	4	5	?	N	d	435.38	NA	9	56	2	24	c	n	685.74	0	1000	100	0	0
021	4	6	?	N	d	301.99	NA	8	24	3	56	i	j	552.55	1	1000	100	0	1
021	4	7	?	N	d	502.1	NA	4	24	8	56	c	n	953.01	1	100	1000	0	0
021	4	8	?	N	d	484.62	NA	9	24	3	56	i	j	886.09	1	100	1000	0	0
021	4	9	?	P	f	1102.71	NA	4	56	9	24	i	j	567.57	1	100	100	0	0
021	4	10	?	P	f	502.39	NA	3	24	7	56	c	n	651.09	1	100	100	0	0
021	4	11	?	P	f	668.95	NA	8	56	2	24	c	j	452.4	1	1000	1000	0	0
021	4	12	?	P	f	1184.77	NA	4	24	8	56	c	n	602.55	1	100	1000	0	0
021	4	13	?	N	d	285.56	NA	8	56	3	24	c	j	802.75	1	1000	100	0	0
021	4	14	?	N	d	485.57	NA	2	24	8	56	c	n	517.33	1	1000	1000	0	0
021	4	15	?	N	d	385.08	NA	3	24	9	56	c	n	652.49	1	1000	1000	0	0
021	4	16	?	N	d	518.38	NA	2	56	8	24	i	n	918.81	1	1000	100	0	0
021	4	17	?	P	f	1870.61	NA	4	24	8	56	c	j	902.66	0	100	100	0	0
021	4	18	?	P	f	318.01	NA	7	56	2	24	c	j	535.04	1	1000	100	0	1
021	4	19	?	P	f	2037.2	NA	8	56	4	24	c	j	501.55	1	100	1000	0	0
021	4	20	?	P	f	1102.74	NA	3	56	7	24	i	j	585.81	1	100	1000	0	0
021	4	21	?	P	f	284.99	NA	7	56	4	24	c	j	869.41	1	1000	100	0	0
021	4	22	?	N	d	1470.18	NA	3	24	8	56	c	n	685.19	1	100	100	0	0
021	4	23	?	N	d	585.24	NA	7	56	4	24	c	j	485.74	1	100	1000	0	0
021	4	24	?	N	d	351.7	NA	9	56	2	24	c	j	452.36	1	1000	1000	0	0
021	4	25	?	N	d	885.14	NA	4	56	9	24	i	j	651.15	0	100	100	0	0
021	4	26	?	N	d	334.82	NA	8	24	3	56	i	j	618.96	1	1000	100	0	1
021	4	27	?	P	f	1586.96	NA	4	56	9	24	i	j	669.06	1	1000	100	0	0
021	4	28	?	P	f	1403.27	NA	7	24	3	56	i	n	568.57	1	100	1000	0	0
021	4	29	?	P	f	1.86	NA	8	24	2	56	i	n	2254.35	1	1000	100	0	0
021	4	30	?	P	f	885.91	NA	4	56	9	24	i	j	468.9	1	1000	1000	0	0
021	4	31	?	N	d	2287.46	NA	7	56	3	24	c	j	802.47	1	100	1000	0	0
021	4	32	?	N	d	569.06	NA	4	56	8	24	i	n	685.93	1	100	100	0	0
021	4	33	?	N	d	368.88	NA	8	56	3	24	c	n	569.19	0	100	100	0	0
021	4	34	?	N	d	518.13	NA	8	56	2	24	c	j	502.26	1	100	100	0	1
021	4	35	?	N	d	435.78	NA	4	56	7	24	i	n	919.51	1	100	100	0	0
021	4	36	?	N	d	200.89	NA	3	56	7	24	i	n	669.21	1	1000	1000	0	0
021	4	37	?	N	d	402.45	NA	2	56	9	24	i	n	435.86	1	100	1000	0	0
021	4	38	?	N	d	418.88	NA	4	24	8	56	c	n	686.1	1	100	100	0	0
021	4	39	?	N	d	251.84	NA	8	56	3	24	c	j	569.48	1	100	100	0	0
021	4	40	?	N	d	85.2	NA	2	56	9	24	i	n	485.08	1	1000	1000	0	0
021	4	41	?	N	d	318.7	NA	3	56	8	24	i	n	669.57	1	1000	1000	0	0
021	4	42	?	N	d	419.29	NA	7	56	4	24	c	j	769.64	1	100	1000	0	0
021	4	43	?	P	f	285.11	NA	3	24	8	56	c	n	1420.61	1	1000	1000	0	0
021	4	44	?	P	f	268.46	NA	4	24	8	56	c	n	352.17	1	1000	1000	0	0
021	4	45	?	P	f	452.13	NA	3	56	7	24	i	j	819.33	1	100	100	0	0
021	4	46	?	P	f	1386.51	NA	4	56	9	24	i	j	820.17	1	1000	1000	0	0
021	4	47	?	P	f	451.75	NA	8	24	2	56	i	n	702.62	1	100	1000	0	0
021	4	48	?	P	f	886.4	NA	3	56	8	24	i	j	485.58	1	100	100	0	0
021	4	49	?	N	d	168.54	NA	4	24	7	56	c	n	752.45	1	1000	100	0	0
021	4	50	?	P	f	1069.58	NA	2	24	8	56	c	n	869.6	1	100	1000	0	0
021	4	51	?	N	d	268.77	NA	3	56	8	24	i	n	1670.21	1	1000	100	0	0
021	4	52	?	N	d	1620.06	NA	4	56	9	24	i	n	752.58	1	100	100	0	0
021	4	53	?	N	d	333.86	NA	9	24	3	56	i	j	836.08	1	1000	1000	0	0
021	4	54	?	P	f	551.55	NA	9	56	2	24	c	j	452.29	1	1000	1000	0	0
021	4	55	?	P	f	652.96	NA	4	56	8	24	i	j	1219.57	1	1000	100	0	0
021	4	56	?	P	f	283.91	NA	7	24	2	56	i	n	569.49	1	1000	100	0	0
021	4	57	?	N	d	502.32	NA	7	24	3	56	i	j	1086.36	1	100	1000	0	0
021	4	58	?	N	d	301.36	NA	7	56	4	24	c	j	652.36	1	1000	1000	0	0
021	4	59	?	P	f	1185.92	NA	9	24	2	56	i	n	518.96	1	100	1000	0	0
021	4	60	?	P	f	285.19	NA	4	24	7	56	c	n	485.2	1	1000	100	0	0
021	4	61	?	N	d	468.73	NA	3	24	8	56	c	n	552.53	1	1000	100	0	0
021	4	62	?	N	d	517.91	NA	7	24	4	56	i	j	602.39	1	100	100	0	0
021	4	63	?	P	f	368.85	NA	2	24	7	56	c	n	602.57	1	100	1000	0	0
021	4	64	?	P	f	302.19	NA	3	24	8	56	c	n	435.7	1	1000	100	0	0
021	4	65	?	P	f	402.29	NA	2	56	9	24	i	j	617.78	1	100	1000	0	0
021	5	1	?	N	d	1503.46	NA	3	56	8	24	i	n	819.5	1	1000	100	-1	0
021	5	2	?	N	d	267.83	NA	2	56	7	24	i	n	535.93	1	1000	1000	0	0
021	5	3	?	N	d	252.04	NA	8	24	4	56	i	j	569.19	1	100	1000	0	0
021	5	4	?	N	d	335.62	NA	7	56	2	24	c	j	953.21	1	100	1000	0	0
021	5	5	?	N	d	318.58	NA	3	24	7	56	c	n	736.25	1	1000	1000	0	0
021	5	6	?	P	f	451.71	NA	4	56	7	24	i	j	585.9	1	100	100	0	0
021	5	7	?	P	f	385.35	NA	8	24	3	56	i	n	501.56	1	1000	100	0	0
021	5	8	?	P	f	285.49	NA	2	24	8	56	c	n	502.27	1	1000	100	0	0
021	5	9	?	P	f	318.68	NA	3	24	9	56	c	n	485.2	1	1000	1000	0	0
021	5	10	?	N	d	234.43	NA	9	24	4	56	i	j	802.65	1	1000	100	0	0
021	5	11	?	N	d	301.66	NA	2	56	7	24	i	n	785.91	1	1000	1000	0	0
021	5	12	?	N	d	1052.77	NA	4	24	7	56	c	n	602.18	1	100	100	0	0
021	5	13	?	P	f	552.39	NA	8	24	2	56	i	n	452.3	1	1000	1000	0	0
021	5	14	?	P	f	869.26	NA	8	56	4	24	c	j	1153.09	1	100	100	0	0
021	5	15	?	P	f	201.48	NA	7	56	3	24	c	j	785.95	1	1000	100	0	0
021	5	16	?	N	d	150.82	NA	9	24	2	56	i	j	936.21	1	1000	100	0	0
021	5	17	?	P	f	735.58	NA	4	56	8	24	i	j	718.25	1	100	100	0	0
021	5	18	?	P	f	568.2	NA	9	24	2	56	i	n	469.75	1	100	1000	0	0
021	5	19	?	P	f	503.01	NA	9	56	4	24	c	j	502.37	1	100	1000	0	0
021	5	20	?	N	d	335.37	NA	8	56	3	24	c	j	736.01	1	1000	100	0	0
021	5	21	?	N	d	468.85	NA	7	24	2	56	i	j	568.91	1	1000	1000	0	0
021	5	22	?	N	d	935.87	NA	3	24	9	56	c	n	584.44	1	100	100	0	0
021	5	23	?	N	d	518.94	NA	4	24	9	56	c	n	452.77	1	100	1000	0	0
021	5	24	?	N	d	468.14	NA	7	24	3	56	i	n	468.84	0	100	1000	0	0
021	5	25	?	P	f	650.94	NA	4	56	8	24	i	j	568.68	1	100	1000	0	1
021	5	26	?	P	f	518.85	NA	3	24	9	56	c	n	518.79	1	100	100	0	0
021	5	27	?	P	f	236.01	NA	4	56	8	24	i	j	569.31	1	1000	1000	0	0
021	5	28	?	N	d	319.71	NA	7	56	2	24	c	j	719.74	1	1000	1000	0	0
021	5	29	?	N	d	886.92	NA	9	56	3	24	c	j	469.47	1	100	1000	0	0
021	5	30	?	N	d	285.42	NA	4	24	9	56	c	n	585.77	1	1000	100	0	0
021	5	31	?	N	d	702.39	NA	8	56	2	24	c	j	519.24	1	100	1000	0	0
021	5	32	?	P	f	1619.69	NA	4	24	8	56	c	n	986.09	1	100	1000	0	0
021	5	33	?	P	f	335.44	NA	2	56	9	24	i	j	585.49	1	1000	100	0	0
021	5	34	?	P	f	317.88	NA	4	24	9	56	c	n	1085.4	1	1000	1000	0	0
021	5	35	?	N	d	835.94	NA	2	56	8	24	i	n	702.35	1	100	100	0	0
021	5	36	?	N	d	635.66	NA	3	56	7	24	i	n	552.49	1	100	100	0	0
021	5	37	?	N	d	318.64	NA	2	24	9	56	c	n	569.15	1	1000	1000	0	0
021	5	38	?	P	f	651.38	NA	3	56	7	24	i	j	535.54	1	100	1000	0	0
021	5	39	?	P	f	702.68	NA	8	24	2	56	i	n	834.63	1	100	1000	0	0
021	5	40	?	P	f	884.94	NA	9	56	4	24	c	j	652.5	1	100	100	0	0
021	5	41	?	P	f	402.01	NA	8	56	2	24	c	j	451.97	1	100	100	0	0
021	5	42	?	N	d	368.56	NA	4	56	7	24	i	n	551.67	1	1000	1000	0	0
021	5	43	?	N	d	335.45	NA	2	24	8	56	c	n	702.71	1	1000	100	0	0
021	5	44	?	N	d	301.86	NA	9	24	3	56	i	n	1837.61	0	1000	1000	0	0
021	5	45	?	P	f	1.72	NA	8	56	4	24	c	j	619.74	1	1000	100	0	1
021	5	46	?	P	f	1921.24	NA	2	24	9	56	c	n	218.91	1	100	1000	0	0
021	5	47	?	P	f	418.98	NA	8	56	4	24	c	j	401.81	1	1000	1000	0	0
021	5	48	?	N	d	652.53	NA	8	56	3	24	c	j	785.95	1	100	100	0	0
021	5	49	?	N	d	318.47	NA	9	56	4	24	c	j	551.63	1	1000	1000	0	0
021	5	50	?	N	d	835.91	NA	9	24	3	56	i	j	852.65	1	100	100	0	0
021	5	51	?	N	d	368.9	NA	8	24	4	56	i	j	619.17	1	1000	100	0	0
021	5	52	?	N	d	352.03	NA	2	24	7	56	c	n	552.38	1	1000	100	0	0
021	5	53	?	P	f	986.07	NA	9	24	4	56	i	n	502.31	1	100	1000	0	0
021	5	54	?	P	f	619.15	NA	9	24	3	56	i	n	468.85	1	100	100	0	0
021	5	55	?	P	f	268.52	NA	7	56	2	24	c	j	568.9	1	1000	100	0	0
021	5	56	?	P	f	485.6	NA	4	24	7	56	c	j	486.21	0	100	100	0	0
021	5	57	?	N	d	785.92	NA	3	56	8	24	i	n	1336.67	1	100	100	0	1
021	5	58	?	N	d	335.05	NA	2	56	9	24	i	n	535.37	1	1000	100	0	0
021	5	59	?	N	d	368.77	NA	3	24	8	56	c	n	569.12	1	100	1000	0	0
021	5	60	?	N	d	284.9	NA	9	56	2	24	c	n	519.46	0	1000	1000	0	0
021	5	61	?	P	f	1053.38	NA	3	56	9	24	i	j	735.45	1	100	100	0	1
021	5	62	?	P	f	885.9	NA	7	24	4	56	i	n	902.88	1	100	1000	0	0
021	5	63	?	P	f	352.15	NA	7	24	2	56	i	n	535.58	1	1000	100	0	0
021	5	64	?	N	d	285.25	NA	9	24	3	56	i	j	819.12	1	1000	1000	0	0
021	5	65	?	N	d	168.9	NA	4	56	9	24	i	n	668.29	1	1000	100	0	0
021	6	1	?	P	f	134.26	NA	7	24	2	56	i	n	902.78	1	1000	100	-1	0
021	6	2	?	P	f	769.23	NA	3	24	9	56	c	n	318.76	1	100	1000	0	0
021	6	3	?	P	f	450.58	NA	8	56	4	24	c	j	569.2	1	1000	100	0	0
021	6	4	?	N	d	335.21	NA	7	24	2	56	i	j	552.43	1	100	1000	0	0
021	6	5	?	N	d	452.09	NA	3	24	7	56	c	n	569.09	1	100	1000	0	0
021	6	6	?	N	d	435.44	NA	4	56	7	24	i	j	552.82	0	100	100	0	0
021	6	7	?	P	f	635.75	NA	3	24	9	56	c	n	518.92	1	1000	100	0	1
021	6	8	?	P	f	1186.28	NA	9	56	2	24	c	j	535.89	1	1000	100	0	0
021	6	9	?	N	d	919.46	NA	9	24	4	56	i	j	535.41	1	100	1000	0	0
021	6	10	?	N	d	285.08	NA	7	24	2	56	i	j	1369.92	1	1000	1000	0	0
021	6	11	?	N	d	318.61	NA	7	24	3	56	i	j	535.73	1	1000	1000	0	0
021	6	12	?	N	d	334.62	NA	4	24	9	56	c	n	869.37	1	1000	100	0	0
021	6	13	?	P	f	1185.57	NA	8	56	2	24	c	j	719.34	1	100	1000	0	0
021	6	14	?	P	f	435.29	NA	9	24	3	56	i	n	1002.99	1	1000	100	0	0
021	6	15	?	P	f	251.34	NA	4	56	7	24	i	j	452.4	1	1000	1000	0	0
021	6	16	?	P	f	285.58	NA	9	24	3	56	i	n	569.03	1	1000	1000	0	0
021	6	17	?	P	f	1353.3	NA	2	56	7	24	i	j	535.66	1	100	100	0	0
021	6	18	?	P	f	485.53	NA	7	56	3	24	c	j	519.16	1	1000	1000	0	0
021	6	19	?	N	d	636.04	NA	7	56	2	24	c	j	618.93	1	100	1000	0	0
021	6	20	?	N	d	485.38	NA	3	56	9	24	i	j	1487.01	0	100	1000	0	0
021	6	21	?	N	d	1202.93	NA	8	56	2	24	c	j	501.69	1	100	100	0	1
021	6	22	?	N	d	1053.12	NA	3	24	7	56	c	n	585.84	1	100	100	0	0
021	6	23	?	N	d	785.6	NA	9	56	2	24	c	j	869.45	1	100	100	0	0
021	6	24	?	N	d	834.3	NA	7	24	3	56	i	j	919.13	1	100	100	0	0
021	6	25	?	P	f	685.92	NA	7	24	2	56	i	n	885.58	1	1000	100	0	0
021	6	26	?	P	f	869.38	NA	4	56	8	24	i	j	485.65	1	100	100	0	0
021	6	27	?	P	f	519.19	NA	3	24	9	56	c	n	485.89	1	100	100	0	0
021	6	28	?	P	f	268.29	NA	2	56	7	24	i	j	669.43	1	1000	100	0	0
021	6	29	?	N	d	435.49	NA	4	56	7	24	i	n	618.55	1	100	100	0	0
021	6	30	?	N	d	235.24	NA	3	24	8	56	c	n	535.69	1	1000	1000	0	0
021	6	31	?	N	d	352.13	NA	4	56	8	24	i	n	536.03	1	1000	1000	0	0
021	6	32	?	N	d	351.61	NA	7	56	3	24	c	n	552.32	0	1000	1000	0	0
021	6	33	?	P	f	301.2	NA	2	24	8	56	c	j	786.29	0	1000	100	0	1
021	6	34	?	P	f	586.77	NA	3	56	9	24	i	j	685.75	1	1000	1000	0	1
021	6	35	?	P	f	302.12	NA	9	56	4	24	c	j	535.63	1	1000	1000	0	0
021	6	36	?	P	f	301.97	NA	3	24	9	56	c	n	401.29	1	1000	1000	0	0
021	6	37	?	N	d	552.37	NA	2	24	7	56	c	n	869.27	1	100	100	0	0
021	6	38	?	P	f	352.04	NA	4	56	9	24	i	j	551.69	1	1000	100	0	0
021	6	39	?	N	d	301.55	NA	2	56	7	24	i	n	1286.47	1	1000	1000	0	0
021	6	40	?	P	f	1053.23	NA	7	56	3	24	c	j	635.92	1	100	100	0	0
021	6	41	?	N	d	1.74	NA	4	56	8	24	i	n	735.81	1	1000	100	0	0
021	6	42	?	P	f	368.88	NA	2	24	8	56	c	n	869.32	1	1000	1000	0	0
021	6	43	?	N	d	768.9	NA	3	56	8	24	i	n	1019.54	1	100	100	0	0
021	6	44	?	P	f	669.3	NA	7	24	4	56	i	n	734.39	1	100	1000	0	0
021	6	45	?	N	d	619.35	NA	8	24	3	56	i	j	836.2	1	100	1000	0	0
021	6	46	?	P	f	134.98	NA	4	24	8	56	c	n	485.69	1	1000	1000	0	0
021	6	47	?	N	d	569.85	NA	2	56	9	24	i	n	552.14	1	100	1000	0	0
021	6	48	?	P	f	268.75	NA	4	56	7	24	i	j	985.52	1	1000	100	0	0
021	6	49	?	N	d	735.81	NA	2	56	8	24	i	n	2688.29	1	100	1000	0	0
021	6	50	?	P	f	352.04	NA	3	56	7	24	i	j	820.68	1	1000	100	0	0
021	6	51	?	N	d	785.93	NA	9	56	2	24	c	j	1034.81	1	100	100	0	0
021	6	52	?	P	f	150.87	NA	3	24	8	56	c	n	735.94	1	1000	100	0	0
021	6	53	?	N	d	734.37	NA	2	24	8	56	c	n	652.23	1	100	1000	0	0
021	6	54	?	P	f	585.74	NA	3	24	7	56	c	n	820.15	1	100	100	0	0
021	6	55	?	P	f	502.41	NA	2	56	9	24	i	j	669.05	1	100	100	0	0
021	6	56	?	P	f	452.18	NA	4	56	7	24	i	n	502.5	0	100	1000	0	0
021	6	57	?	N	d	84.76	NA	2	56	9	24	i	n	502.2	1	1000	1000	0	1
021	6	58	?	P	f	335.18	NA	9	56	4	24	c	j	435.51	1	1000	1000	0	0
021	6	59	?	N	d	552.23	NA	9	56	2	24	c	j	535.1	1	100	1000	0	0
021	6	60	?	P	f	719.27	NA	9	56	4	24	c	j	567.7	1	1000	100	0	0
021	6	61	?	N	d	385.0	NA	9	56	2	24	c	j	552.21	1	1000	100	0	0
021	6	62	?	P	f	518.56	NA	8	24	3	56	i	n	519.31	1	100	100	0	0
021	6	63	?	P	f	450.58	NA	2	24	7	56	c	n	385.69	1	100	1000	0	0
021	6	64	?	N	d	385.45	NA	9	56	4	24	c	j	669.58	1	100	1000	0	0
021	6	65	?	N	d	285.32	NA	2	56	9	24	i	n	652.8	1	1000	100	0	0
