subj	block	trial	task_cue	task	choice_resp	choiceRT	choice_acc	topnum	topsize	botnum	botsize	cong	task_resp	taskRT	task_acc	RSI	CSI	altRep	E1
023	1	1	?	P	d	486.04	NA	2	24	7	56	c	n	2437.72	1	100	100	-1	0
023	1	2	?	N	f	1253.48	NA	3	56	7	24	i	n	3673.15	1	100	1000	0	0
023	1	3	?	P	d	869.79	NA	4	56	7	24	i	j	1120.46	1	1000	1000	0	0
023	1	4	?	P	d	869.63	NA	7	56	3	24	c	j	1870.88	1	100	100	0	0
023	1	5	?	P	d	485.78	NA	2	24	7	56	c	n	636.11	1	100	100	0	0
023	1	6	?	N	f	485.98	NA	4	56	8	24	i	n	953.74	1	100	100	0	0
023	1	7	?	N	f	386.29	NA	9	24	3	56	i	j	953.52	1	100	100	0	0
023	1	8	?	P	d	469.68	NA	2	56	8	24	i	j	1535.6	1	100	1000	0	0
023	1	9	?	N	f	636.17	NA	4	24	7	56	c	n	1253.55	1	100	1000	0	0
023	1	10	?	N	f	436.17	NA	8	56	2	24	c	j	603.26	1	100	1000	0	0
023	1	11	?	N	f	83.68	NA	7	56	4	24	c	j	1103.83	1	1000	100	0	0
023	1	12	?	P	d	335.69	NA	3	24	9	56	c	n	620.47	1	100	1000	0	0
023	1	13	?	P	d	1671.03	NA	4	56	9	24	i	j	1838.33	1	100	100	0	0
023	1	14	?	P	d	802.59	NA	2	56	7	24	i	j	636.8	1	1000	100	0	0
023	1	15	?	N	f	452.22	NA	4	24	9	56	c	n	1403.78	1	1000	1000	0	0
023	1	16	?	P	d	302.35	NA	2	56	9	24	i	j	2520.06	1	100	100	0	0
023	1	17	?	N	f	319.02	NA	9	56	4	24	c	j	2321.77	1	1000	100	0	0
023	1	18	?	P	d	502.87	NA	2	24	9	56	c	n	486.09	1	1000	100	0	0
023	1	19	?	N	f	686.15	NA	4	24	8	56	c	n	3504.76	1	100	100	0	0
023	1	20	?	P	d	368.93	NA	2	24	7	56	c	n	1036.72	1	100	100	0	0
023	1	21	?	P	d	535.6	NA	3	56	9	24	i	j	569.42	1	1000	1000	0	0
023	1	22	?	N	f	218.93	NA	4	56	9	24	i	n	1503.89	1	1000	1000	0	0
023	1	23	?	N	f	319.46	NA	2	56	9	24	i	n	1086.81	1	1000	100	0	0
023	1	24	?	N	f	252.39	NA	8	24	3	56	i	j	686.75	1	1000	1000	0	0
023	1	25	?	N	f	318.47	NA	4	24	9	56	c	n	970.35	1	1000	100	0	0
023	1	26	?	P	d	869.88	NA	8	24	2	56	i	n	1468.34	1	100	100	0	0
023	1	27	?	P	d	402.7	NA	3	56	7	24	i	n	1004.37	0	100	1000	0	0
023	1	28	?	P	d	1504.6	NA	8	24	2	56	i	n	1487.03	1	1000	100	0	1
023	1	29	?	N	f	402.79	NA	3	24	7	56	c	n	1804.61	1	100	1000	0	0
023	1	30	?	N	f	1770.96	NA	9	24	2	56	i	j	1954.38	1	1000	100	0	0
023	1	31	?	N	f	469.33	NA	4	56	9	24	i	n	870.72	1	1000	1000	0	0
023	1	32	?	P	d	402.69	NA	9	56	3	24	c	j	667.53	1	100	100	0	0
023	1	33	?	P	d	152.62	NA	7	56	4	24	c	j	520.06	1	100	100	0	0
023	1	34	?	P	d	502.68	NA	2	24	8	56	c	n	954.1	1	1000	100	0	0
023	1	35	?	P	d	336.02	NA	8	56	3	24	c	j	469.2	1	100	1000	0	0
023	1	36	?	N	f	536.45	NA	9	56	4	24	c	j	820.47	1	1000	1000	0	0
023	1	37	?	N	f	334.16	NA	2	56	9	24	i	n	785.93	1	100	100	0	0
023	1	38	?	P	d	385.97	NA	4	24	8	56	c	n	485.32	1	1000	1000	0	0
023	1	39	?	P	d	286.03	NA	3	56	9	24	i	j	1771.06	1	1000	100	0	0
023	1	40	?	P	d	436.13	NA	7	24	2	56	i	n	1387.06	1	100	1000	0	0
023	1	41	?	N	f	469.22	NA	3	24	8	56	c	n	586.97	1	1000	1000	0	0
023	1	42	?	P	d	653.77	NA	9	24	4	56	i	n	1254.27	1	100	100	0	0
023	1	43	?	N	f	336.01	NA	7	56	2	24	c	j	1503.77	1	100	1000	0	0
023	1	44	?	P	d	250.81	NA	3	24	8	56	c	n	502.79	1	100	1000	0	0
023	1	45	?	N	f	386.21	NA	2	56	8	24	i	n	1537.73	1	100	1000	0	0
023	1	46	?	P	d	619.22	NA	7	24	4	56	i	n	1671.12	1	1000	1000	0	0
023	1	47	?	N	f	452.77	NA	9	24	2	56	i	j	5155.78	1	100	1000	0	0
023	1	48	?	N	f	401.85	NA	4	24	9	56	c	n	687.24	1	1000	1000	0	0
023	1	49	?	N	f	436.27	NA	2	24	7	56	c	n	869.93	1	1000	100	0	0
023	1	50	?	P	d	369.33	NA	8	56	4	24	c	j	653.64	1	1000	100	0	0
023	1	51	?	P	d	402.6	NA	8	56	2	24	c	j	653.42	1	1000	100	0	0
023	1	52	?	P	d	452.49	NA	9	24	3	56	i	n	1371.07	1	1000	100	0	0
023	1	53	?	P	d	1219.8	NA	8	56	4	24	c	j	820.1	1	100	1000	0	0
023	1	54	?	N	f	333.87	NA	7	56	3	24	c	j	1170.47	1	1000	1000	0	0
023	1	55	?	N	f	85.76	NA	8	24	2	56	i	j	670.23	1	1000	1000	0	0
023	1	56	?	N	f	502.77	NA	8	56	3	24	c	j	4271.9	1	1000	1000	0	0
023	1	57	?	P	d	2204.21	NA	7	24	2	56	i	n	936.5	1	1000	100	0	0
023	1	58	?	P	d	769.79	NA	4	24	9	56	c	n	720.03	1	100	100	0	0
023	1	59	?	P	d	402.62	NA	8	56	3	24	c	j	419.98	1	1000	1000	0	0
023	1	60	?	N	f	486.0	NA	7	24	2	56	i	j	1070.41	1	1000	100	0	0
023	1	61	?	N	f	352.51	NA	3	56	7	24	i	n	970.63	1	1000	1000	0	0
023	1	62	?	P	d	269.23	NA	8	56	4	24	c	j	986.66	1	100	100	0	0
023	1	63	?	P	d	485.63	NA	2	56	9	24	i	j	935.07	1	100	100	0	0
023	1	64	?	N	f	436.42	NA	9	24	3	56	i	j	953.74	1	100	1000	0	0
023	1	65	?	P	d	870.03	NA	9	24	4	56	i	n	1521.0	1	100	1000	0	0
023	2	1	?	N	f	2087.29	NA	9	56	3	24	c	j	985.92	1	100	100	-1	0
023	2	2	?	P	d	452.47	NA	4	24	7	56	c	n	970.69	1	1000	1000	0	0
023	2	3	?	P	d	352.8	NA	9	24	3	56	i	n	1270.72	1	1000	100	0	0
023	2	4	?	P	d	920.1	NA	8	24	2	56	i	n	1954.8	1	100	1000	0	0
023	2	5	?	N	f	385.66	NA	4	56	8	24	i	n	1837.83	1	1000	100	0	0
023	2	6	?	N	f	1903.89	NA	2	24	8	56	c	n	2336.43	1	1000	100	0	0
023	2	7	?	P	d	219.29	NA	4	56	8	24	i	j	1236.88	1	100	100	0	0
023	2	8	?	P	d	352.59	NA	3	56	7	24	i	j	887.4	1	100	1000	0	0
023	2	9	?	P	d	436.01	NA	7	56	4	24	c	j	454.0	1	100	1000	0	0
023	2	10	?	P	d	319.32	NA	3	56	8	24	i	j	703.68	1	1000	100	0	0
023	2	11	?	N	f	352.6	NA	8	24	2	56	i	j	2823.04	1	1000	1000	0	0
023	2	12	?	N	f	550.9	NA	4	56	7	24	i	n	1587.43	1	1000	1000	0	0
023	2	13	?	N	f	402.65	NA	9	24	3	56	i	j	1738.1	1	1000	100	0	0
023	2	14	?	P	d	469.59	NA	9	24	2	56	i	n	1871.06	1	1000	1000	0	0
023	2	15	?	N	f	402.72	NA	9	56	3	24	c	j	868.42	1	1000	100	0	0
023	2	16	?	N	f	569.89	NA	2	24	7	56	c	n	1184.9	1	100	100	0	0
023	2	17	?	P	d	386.08	NA	7	24	3	56	i	n	619.75	1	100	100	0	0
023	2	18	?	N	f	567.72	NA	4	24	9	56	c	n	1153.88	1	100	1000	0	0
023	2	19	?	N	f	335.44	NA	7	56	3	24	c	j	1470.62	1	100	1000	0	0
023	2	20	?	N	f	219.22	NA	4	56	8	24	i	n	570.31	1	100	1000	0	0
023	2	21	?	P	d	385.9	NA	2	56	7	24	i	j	1221.27	1	1000	1000	0	0
023	2	22	?	P	d	402.78	NA	4	24	8	56	c	n	1253.94	1	1000	1000	0	0
023	2	23	?	P	d	386.0	NA	2	24	9	56	c	n	954.01	1	100	1000	0	0
023	2	24	?	N	f	1070.57	NA	4	24	7	56	c	n	1937.44	1	100	100	0	0
023	2	25	?	N	f	52.59	NA	7	56	3	24	c	j	637.34	1	1000	100	0	0
023	2	26	?	N	f	352.74	NA	9	56	2	24	c	j	786.4	1	100	100	0	0
023	2	27	?	N	f	335.65	NA	3	24	9	56	c	n	1053.78	1	100	100	0	0
023	2	28	?	P	d	536.28	NA	2	56	9	24	i	j	1570.97	1	1000	100	0	0
023	2	29	?	P	d	336.07	NA	7	24	4	56	i	n	520.05	1	100	100	0	0
023	2	30	?	P	d	319.1	NA	7	24	2	56	i	n	1120.55	1	100	1000	0	0
023	2	31	?	P	d	1487.28	NA	3	56	7	24	i	j	503.19	1	100	1000	0	0
023	2	32	?	N	f	68.57	NA	9	24	4	56	i	j	1954.92	1	1000	100	0	0
023	2	33	?	N	f	419.66	NA	2	24	7	56	c	n	2972.45	1	1000	1000	0	0
023	2	34	?	P	d	919.97	NA	4	24	8	56	c	n	786.69	1	1000	100	0	0
023	2	35	?	N	f	301.97	NA	8	56	2	24	c	j	1204.03	1	1000	1000	0	0
023	2	36	?	N	f	301.88	NA	9	56	4	24	c	j	902.88	1	100	100	0	0
023	2	37	?	P	d	368.72	NA	3	56	9	24	i	j	903.15	1	100	1000	0	0
023	2	38	?	N	f	467.51	NA	8	56	2	24	c	j	1304.44	1	1000	1000	0	0
023	2	39	?	P	d	335.74	NA	7	24	3	56	i	n	1938.36	1	1000	1000	0	0
023	2	40	?	N	f	519.83	NA	4	56	9	24	i	n	1253.74	1	100	100	0	0
023	2	41	?	P	d	386.04	NA	9	56	3	24	c	j	984.78	1	100	100	0	0
023	2	42	?	N	f	1253.42	NA	8	56	2	24	c	j	2255.81	1	1000	1000	0	0
023	2	43	?	N	f	853.26	NA	4	56	8	24	i	n	1252.25	1	100	100	0	0
023	2	44	?	P	d	219.23	NA	2	24	9	56	c	n	969.53	1	100	100	0	0
023	2	45	?	P	d	435.61	NA	4	56	8	24	i	j	2322.37	1	1000	1000	0	0
023	2	46	?	P	d	2938.63	NA	7	56	3	24	c	j	1487.3	1	100	100	0	0
023	2	47	?	N	f	402.65	NA	8	24	4	56	i	j	753.64	1	1000	1000	0	0
023	2	48	?	P	d	2621.67	NA	8	56	3	24	c	j	986.54	1	100	1000	0	0
023	2	49	?	P	d	669.64	NA	2	24	9	56	c	n	1771.11	1	1000	100	0	0
023	2	50	?	N	f	502.85	NA	7	24	4	56	i	j	1286.66	1	100	1000	0	0
023	2	51	?	N	f	2421.28	NA	3	24	8	56	c	n	1570.98	1	100	1000	0	0
023	2	52	?	P	d	2805.49	NA	8	24	4	56	i	n	10181.16	1	1000	100	0	0
023	2	53	?	N	f	436.08	NA	9	24	2	56	i	j	1086.9	1	100	100	0	0
023	2	54	?	P	d	69.22	NA	4	24	7	56	c	n	1870.98	1	1000	100	0	0
023	2	55	?	P	d	486.18	NA	9	56	3	24	c	j	1154.1	1	1000	100	0	0
023	2	56	?	N	f	485.39	NA	7	56	2	24	c	j	1204.23	1	100	1000	0	0
023	2	57	?	N	f	402.57	NA	4	24	8	56	c	n	1036.97	1	1000	1000	0	0
023	2	58	?	N	f	335.53	NA	9	56	3	24	c	j	786.94	1	1000	1000	0	0
023	2	59	?	N	f	469.29	NA	9	24	2	56	i	j	1054.08	1	100	100	0	0
023	2	60	?	P	d	319.2	NA	7	56	3	24	c	j	1251.8	1	1000	100	0	0
023	2	61	?	P	d	536.11	NA	8	24	2	56	i	n	1486.8	1	1000	1000	0	0
023	2	62	?	P	d	536.24	NA	8	24	3	56	i	n	1454.58	1	1000	100	0	0
023	2	63	?	N	f	753.28	NA	8	24	2	56	i	j	920.56	1	100	100	0	0
023	2	64	?	N	f	519.07	NA	4	24	8	56	c	n	1821.86	1	100	1000	0	0
023	2	65	?	N	f	369.03	NA	3	56	8	24	i	n	536.3	1	100	1000	0	0
023	3	1	?	P	d	970.22	NA	9	24	2	56	i	n	1303.92	1	1000	1000	-1	0
023	3	2	?	N	f	636.39	NA	9	24	3	56	i	j	3256.58	1	1000	100	0	0
023	3	3	?	P	d	519.36	NA	2	24	8	56	c	n	1103.51	1	100	100	0	0
023	3	4	?	N	f	419.05	NA	4	24	9	56	c	n	2088.51	1	100	1000	0	0
023	3	5	?	P	d	385.49	NA	3	24	7	56	c	n	1170.33	1	1000	100	0	0
023	3	6	?	N	f	367.45	NA	2	56	7	24	i	n	1153.67	1	100	100	0	0
023	3	7	?	P	d	469.51	NA	9	24	3	56	i	n	1537.66	1	100	100	0	0
023	3	8	?	N	f	335.85	NA	7	56	4	24	c	j	1553.94	1	100	1000	0	0
023	3	9	?	P	d	1854.27	NA	3	24	8	56	c	n	453.03	1	100	100	0	0
023	3	10	?	N	f	302.59	NA	7	56	2	24	c	j	1036.49	1	100	100	0	0
023	3	11	?	P	d	468.85	NA	7	56	3	24	c	j	953.02	1	1000	100	0	0
023	3	12	?	N	f	368.64	NA	9	24	2	56	i	j	2572.41	1	100	1000	0	0
023	3	13	?	P	d	435.94	NA	4	24	7	56	c	n	2138.67	1	1000	1000	0	0
023	3	14	?	N	f	435.9	NA	7	24	2	56	i	j	1236.61	1	100	100	0	0
023	3	15	?	N	f	319.36	NA	7	56	4	24	c	j	1337.4	1	100	100	0	0
023	3	16	?	P	d	853.21	NA	2	24	7	56	c	n	419.67	1	1000	1000	0	0
023	3	17	?	N	f	502.98	NA	9	56	3	24	c	j	1202.98	1	1000	1000	0	0
023	3	18	?	P	d	352.8	NA	8	24	4	56	i	n	520.05	1	100	1000	0	0
023	3	19	?	N	f	536.19	NA	9	56	2	24	c	j	1637.22	1	1000	1000	0	0
023	3	20	?	P	d	319.1	NA	3	24	9	56	c	n	1220.85	1	1000	1000	0	0
023	3	21	?	P	d	1370.51	NA	4	24	7	56	c	n	1037.12	1	100	1000	0	0
023	3	22	?	N	f	269.35	NA	8	56	3	24	c	j	1053.57	1	100	1000	0	0
023	3	23	?	N	f	286.3	NA	4	56	7	24	i	n	1387.72	1	1000	1000	0	0
023	3	24	?	P	d	435.77	NA	3	56	9	24	i	j	934.6	1	1000	1000	0	0
023	3	25	?	P	d	469.42	NA	8	56	2	24	c	j	920.1	1	100	1000	0	0
023	3	26	?	P	d	836.56	NA	7	56	3	24	c	j	700.93	1	100	100	0	0
023	3	27	?	N	f	468.72	NA	4	24	7	56	c	n	1037.36	1	1000	100	0	0
023	3	28	?	N	f	402.75	NA	7	24	3	56	i	j	519.41	1	100	1000	0	0
023	3	29	?	N	f	369.38	NA	8	56	2	24	c	j	686.57	1	100	1000	0	0
023	3	30	?	P	d	319.16	NA	9	56	3	24	c	j	786.86	1	1000	1000	0	0
023	3	31	?	N	f	369.49	NA	4	24	9	56	c	n	520.17	1	100	1000	0	0
023	3	32	?	P	d	2071.22	NA	3	56	7	24	i	j	636.04	1	100	1000	0	0
023	3	33	?	N	f	319.39	NA	8	56	2	24	c	j	719.66	1	100	100	0	0
023	3	34	?	P	d	385.51	NA	4	56	7	24	i	j	1304.24	1	1000	100	0	0
023	3	35	?	N	f	369.34	NA	8	24	2	56	i	j	702.89	1	1000	1000	0	0
023	3	36	?	P	d	285.92	NA	7	56	4	24	c	j	919.87	1	1000	100	0	0
023	3	37	?	N	f	502.91	NA	2	24	9	56	c	n	936.82	1	100	100	0	0
023	3	38	?	P	d	402.61	NA	4	24	8	56	c	n	1303.23	1	100	100	0	0
023	3	39	?	N	f	1269.77	NA	3	56	8	24	i	n	536.59	1	1000	1000	0	0
023	3	40	?	P	d	317.4	NA	2	56	7	24	i	j	787.01	1	1000	1000	0	0
023	3	41	?	N	f	369.3	NA	7	24	4	56	i	j	669.67	1	100	100	0	0
023	3	42	?	P	d	1303.62	NA	7	24	2	56	i	n	470.1	1	100	1000	0	0
023	3	43	?	N	f	486.13	NA	3	24	7	56	c	n	2188.59	1	1000	100	0	0
023	3	44	?	P	d	336.03	NA	8	24	2	56	i	n	969.83	1	1000	100	0	0
023	3	45	?	N	f	418.77	NA	7	24	4	56	i	j	903.73	1	100	100	0	0
023	3	46	?	N	f	1686.77	NA	3	56	9	24	i	n	636.7	1	1000	1000	0	0
023	3	47	?	P	d	469.68	NA	8	24	2	56	i	n	1304.49	1	100	100	0	0
023	3	48	?	N	f	2.46	NA	4	56	8	24	i	n	1204.16	1	1000	100	0	0
023	3	49	?	P	d	401.83	NA	9	24	2	56	i	n	987.23	1	100	100	0	0
023	3	50	?	N	f	386.12	NA	3	24	7	56	c	n	1153.81	1	1000	100	0	0
023	3	51	?	P	d	335.83	NA	9	24	4	56	i	n	1387.53	1	1000	1000	0	0
023	3	52	?	N	f	285.73	NA	2	56	7	24	i	n	1551.9	1	100	1000	0	0
023	3	53	?	P	d	334.02	NA	3	56	7	24	i	j	786.7	1	100	1000	0	0
023	3	54	?	P	d	2171.4	NA	9	24	4	56	i	n	687.55	1	1000	100	0	0
023	3	55	?	N	f	419.53	NA	8	56	3	24	c	j	1588.15	1	1000	1000	0	0
023	3	56	?	P	d	2.4	NA	9	24	2	56	i	n	736.9	1	1000	100	0	0
023	3	57	?	N	f	102.29	NA	9	24	4	56	i	j	1235.05	1	1000	100	0	0
023	3	58	?	P	d	436.14	NA	7	24	3	56	i	n	1385.37	1	100	1000	0	0
023	3	59	?	N	f	319.41	NA	4	24	8	56	c	n	1787.22	1	1000	1000	0	0
023	3	60	?	P	d	150.59	NA	3	56	8	24	i	j	1236.19	1	1000	100	0	0
023	3	61	?	N	f	319.05	NA	8	56	2	24	c	j	1671.24	1	1000	100	0	0
023	3	62	?	P	d	536.18	NA	3	56	7	24	i	j	1170.74	1	100	100	0	0
023	3	63	?	N	f	586.11	NA	7	56	4	24	c	j	1087.31	1	1000	100	0	0
023	3	64	?	P	d	235.72	NA	3	56	8	24	i	j	819.86	1	1000	1000	0	0
023	3	65	?	N	f	319.64	NA	4	24	7	56	c	n	603.68	1	100	1000	0	0
023	4	1	?	N	f	869.76	NA	2	56	8	24	i	n	1469.92	1	100	1000	-1	0
023	4	2	?	P	d	535.4	NA	9	56	4	24	c	j	1520.9	1	1000	1000	0	0
023	4	3	?	N	f	286.96	NA	7	56	3	24	c	j	1354.55	1	100	1000	0	0
023	4	4	?	N	f	552.86	NA	7	24	2	56	i	j	1086.88	1	100	100	0	0
023	4	5	?	N	f	419.94	NA	3	56	9	24	i	n	821.17	1	1000	1000	0	0
023	4	6	?	P	d	202.0	NA	9	56	2	24	c	j	753.49	1	1000	100	0	0
023	4	7	?	P	d	302.72	NA	9	56	4	24	c	j	653.4	1	1000	1000	0	0
023	4	8	?	P	d	302.78	NA	2	24	7	56	c	n	1168.61	1	100	100	0	0
023	4	9	?	N	f	52.32	NA	8	24	3	56	i	j	2421.94	1	1000	100	0	0
023	4	10	?	N	f	369.14	NA	4	24	8	56	c	n	1070.76	1	100	1000	0	0
023	4	11	?	P	d	236.63	NA	3	56	9	24	i	j	720.32	1	100	1000	0	0
023	4	12	?	N	f	302.73	NA	4	56	9	24	i	n	1153.26	1	1000	100	0	0
023	4	13	?	P	d	236.0	NA	7	24	2	56	i	n	953.52	1	100	100	0	0
023	4	14	?	N	f	168.47	NA	8	24	4	56	i	j	1404.38	1	1000	100	0	0
023	4	15	?	P	d	252.82	NA	3	56	9	24	i	j	636.5	1	100	1000	0	0
023	4	16	?	N	f	35.79	NA	4	24	9	56	c	n	1819.22	1	1000	100	0	0
023	4	17	?	P	d	319.5	NA	2	56	9	24	i	j	719.88	1	1000	1000	0	0
023	4	18	?	N	f	502.71	NA	4	24	9	56	c	n	887.05	1	100	1000	0	0
023	4	19	?	P	d	352.59	NA	9	56	3	24	c	j	1103.71	1	1000	1000	0	0
023	4	20	?	P	d	486.54	NA	4	24	8	56	c	n	486.6	1	100	100	0	0
023	4	21	?	P	d	352.66	NA	2	56	7	24	i	j	417.43	1	1000	1000	0	0
023	4	22	?	P	d	433.9	NA	3	24	9	56	c	n	701.66	1	1000	100	0	0
023	4	23	?	N	f	302.28	NA	4	56	7	24	i	n	717.56	1	100	1000	0	0
023	4	24	?	N	f	269.11	NA	3	56	8	24	i	n	451.94	1	100	1000	0	0
023	4	25	?	N	f	286.57	NA	8	24	4	56	i	j	970.52	1	100	1000	0	0
023	4	26	?	N	f	319.05	NA	7	24	3	56	i	j	1320.24	1	1000	100	0	0
023	4	27	?	P	d	836.48	NA	8	24	4	56	i	n	803.82	1	100	1000	0	0
023	4	28	?	N	f	385.86	NA	8	56	2	24	c	j	1320.88	1	100	100	0	0
023	4	29	?	P	d	319.3	NA	7	56	3	24	c	j	786.78	1	100	100	0	0
023	4	30	?	N	f	235.99	NA	2	56	9	24	i	n	2269.76	1	100	100	0	0
023	4	31	?	P	d	368.97	NA	9	56	4	24	c	j	419.2	1	100	1000	0	0
023	4	32	?	N	f	402.97	NA	8	56	2	24	c	j	1220.91	1	1000	1000	0	0
023	4	33	?	N	f	703.02	NA	7	24	3	56	i	j	1136.84	1	100	100	0	0
023	4	34	?	P	d	369.39	NA	9	24	2	56	i	n	1120.2	1	1000	100	0	0
023	4	35	?	N	f	619.36	NA	4	56	9	24	i	n	1236.87	1	100	100	0	0
023	4	36	?	P	d	1718.74	NA	3	24	8	56	c	n	1538.04	1	100	1000	0	0
023	4	37	?	P	d	302.45	NA	7	56	4	24	c	j	469.74	1	1000	100	0	0
023	4	38	?	P	d	402.86	NA	2	56	9	24	i	j	1320.91	1	100	100	0	0
023	4	39	?	N	f	335.51	NA	4	56	8	24	i	n	2756.14	1	1000	1000	0	0
023	4	40	?	N	f	302.37	NA	9	24	3	56	i	j	853.81	1	1000	1000	0	0
023	4	41	?	N	f	1520.55	NA	2	56	9	24	i	n	486.77	1	100	1000	0	0
023	4	42	?	N	f	569.57	NA	7	24	3	56	i	j	769.72	1	1000	100	0	0
023	4	43	?	P	d	235.89	NA	4	24	9	56	c	n	834.47	1	1000	1000	0	0
023	4	44	?	P	d	319.13	NA	7	24	3	56	i	n	452.63	1	1000	1000	0	0
023	4	45	?	N	f	102.38	NA	7	56	4	24	c	j	1036.71	1	1000	100	0	0
023	4	46	?	N	f	302.13	NA	2	24	9	56	c	n	953.5	1	1000	100	0	0
023	4	47	?	N	f	970.09	NA	9	56	3	24	c	j	920.28	1	100	1000	0	0
023	4	48	?	P	d	35.06	NA	8	24	4	56	i	n	419.54	1	1000	1000	0	0
023	4	49	?	N	f	218.84	NA	2	56	9	24	i	n	736.34	1	100	100	0	0
023	4	50	?	P	d	252.5	NA	9	24	3	56	i	n	836.63	1	1000	100	0	0
023	4	51	?	N	f	385.22	NA	8	56	2	24	c	j	736.66	1	1000	100	0	0
023	4	52	?	P	d	418.68	NA	9	56	4	24	c	j	1204.09	1	100	1000	0	0
023	4	53	?	N	f	319.3	NA	8	56	2	24	c	j	1503.72	1	100	100	0	0
023	4	54	?	P	d	335.9	NA	3	24	8	56	c	n	953.6	1	100	100	0	0
023	4	55	?	N	f	469.7	NA	9	24	2	56	i	j	1037.43	1	1000	1000	0	0
023	4	56	?	P	d	569.67	NA	8	56	3	24	c	j	1404.26	1	100	100	0	0
023	4	57	?	N	f	369.84	NA	9	24	4	56	i	j	1020.68	1	100	1000	0	0
023	4	58	?	P	d	1704.19	NA	3	24	9	56	c	n	2372.04	1	100	100	0	0
023	4	59	?	N	f	436.48	NA	2	24	9	56	c	n	2589.17	1	1000	1000	0	0
023	4	60	?	P	d	352.32	NA	3	24	7	56	c	n	834.85	1	1000	1000	0	0
023	4	61	?	P	d	252.57	NA	2	24	7	56	c	n	403.11	1	1000	100	0	0
023	4	62	?	P	d	602.45	NA	4	56	8	24	i	j	953.62	1	100	100	0	0
023	4	63	?	N	f	518.81	NA	3	56	8	24	i	n	786.94	1	1000	100	0	0
023	4	64	?	N	f	68.73	NA	4	24	7	56	c	n	502.82	1	1000	1000	0	0
023	4	65	?	N	f	368.67	NA	3	24	9	56	c	n	584.64	1	100	1000	0	0
023	5	1	?	P	d	1220.02	NA	3	24	7	56	c	n	3122.63	1	1000	1000	-1	0
023	5	2	?	P	d	402.01	NA	4	56	8	24	i	n	2204.52	0	100	1000	0	0
023	5	3	?	N	f	18.9	NA	7	24	2	56	i	j	2388.93	1	1000	1000	0	1
023	5	4	?	N	f	335.61	NA	9	24	3	56	i	j	620.46	1	100	1000	0	0
023	5	5	?	P	d	2071.09	NA	4	24	7	56	c	n	1203.79	1	1000	100	0	0
023	5	6	?	N	f	235.51	NA	3	24	8	56	c	n	719.71	1	1000	100	0	0
023	5	7	?	P	d	469.05	NA	9	56	4	24	c	j	2104.48	1	1000	1000	0	0
023	5	8	?	N	f	318.68	NA	7	56	2	24	c	j	1237.28	1	100	100	0	0
023	5	9	?	P	d	302.59	NA	3	24	7	56	c	n	435.78	1	100	1000	0	0
023	5	10	?	N	f	286.27	NA	2	56	7	24	i	n	3822.79	1	1000	100	0	0
023	5	11	?	P	d	336.06	NA	4	56	7	24	i	j	1185.93	1	100	100	0	0
023	5	12	?	N	f	319.27	NA	9	24	2	56	i	j	2488.84	1	1000	1000	0	0
023	5	13	?	P	d	333.87	NA	7	56	4	24	c	j	2871.55	1	1000	100	0	0
023	5	14	?	N	f	285.84	NA	8	56	2	24	c	j	1270.03	1	1000	1000	0	0
023	5	15	?	N	f	385.89	NA	7	56	4	24	c	j	902.78	1	100	1000	0	0
023	5	16	?	N	f	436.34	NA	3	24	8	56	c	n	4324.18	1	100	100	0	0
023	5	17	?	N	f	618.34	NA	7	24	2	56	i	j	502.81	1	1000	100	0	0
023	5	18	?	P	d	386.85	NA	7	24	4	56	i	n	436.2	1	1000	100	0	0
023	5	19	?	P	d	302.56	NA	8	56	2	24	c	j	801.49	1	100	100	0	0
023	5	20	?	N	f	252.59	NA	9	56	4	24	c	j	2019.13	1	1000	100	0	0
023	5	21	?	P	d	352.9	NA	8	56	2	24	c	j	586.52	1	1000	1000	0	0
023	5	22	?	N	f	253.24	NA	3	56	7	24	i	n	1270.09	1	1000	1000	0	0
023	5	23	?	P	d	233.76	NA	8	24	2	56	i	n	1152.96	1	100	100	0	0
023	5	24	?	N	f	286.03	NA	4	24	8	56	c	n	502.81	1	100	1000	0	0
023	5	25	?	P	d	369.33	NA	2	24	9	56	c	n	903.31	1	100	1000	0	0
023	5	26	?	N	f	286.05	NA	3	24	9	56	c	n	503.22	1	1000	1000	0	0
023	5	27	?	P	d	336.02	NA	4	24	8	56	c	n	1104.01	1	100	1000	0	0
023	5	28	?	N	f	167.48	NA	3	24	7	56	c	n	1236.73	1	1000	100	0	0
023	5	29	?	P	d	67.36	NA	8	24	2	56	i	j	801.33	0	1000	100	0	0
023	5	30	?	N	f	986.56	NA	9	24	4	56	i	j	1720.94	1	100	100	0	1
023	5	31	?	P	d	302.7	NA	2	24	8	56	c	n	1236.66	1	1000	1000	0	0
023	5	32	?	N	f	419.33	NA	4	24	7	56	c	n	5091.55	1	1000	100	0	0
023	5	33	?	P	d	202.43	NA	8	56	3	24	c	j	670.37	1	1000	100	0	0
023	5	34	?	N	f	384.17	NA	2	56	8	24	i	n	1337.63	1	100	1000	0	0
023	5	35	?	P	d	452.45	NA	4	56	8	24	i	j	3537.82	1	1000	1000	0	0
023	5	36	?	N	f	418.73	NA	9	56	3	24	c	j	1504.12	1	100	100	0	0
023	5	37	?	N	f	352.58	NA	8	56	4	24	c	j	886.69	1	100	100	0	0
023	5	38	?	N	f	302.73	NA	8	56	3	24	c	j	602.88	1	1000	1000	0	0
023	5	39	?	P	d	303.21	NA	2	56	7	24	i	j	685.93	1	100	1000	0	0
023	5	40	?	P	d	235.63	NA	3	56	9	24	i	j	519.96	1	100	1000	0	0
023	5	41	?	P	d	269.33	NA	4	56	7	24	i	j	667.68	1	1000	100	0	0
023	5	42	?	N	f	536.2	NA	3	56	7	24	i	n	920.05	1	1000	1000	0	0
023	5	43	?	N	f	335.4	NA	8	24	4	56	i	j	702.35	1	100	100	0	0
023	5	44	?	N	f	286.01	NA	9	24	3	56	i	j	936.98	1	1000	1000	0	0
023	5	45	?	P	d	300.72	NA	4	24	7	56	c	n	1303.91	1	1000	1000	0	0
023	5	46	?	P	d	386.27	NA	2	24	8	56	c	n	519.51	1	100	100	0	0
023	5	47	?	P	d	485.9	NA	3	24	8	56	c	n	469.29	1	100	100	0	0
023	5	48	?	P	d	669.31	NA	2	56	8	24	i	j	803.56	1	1000	100	0	0
023	5	49	?	N	f	352.77	NA	3	56	9	24	i	n	853.41	1	100	1000	0	0
023	5	50	?	N	f	1170.28	NA	4	24	9	56	c	n	570.0	1	1000	1000	0	0
023	5	51	?	N	f	786.52	NA	8	56	2	24	c	j	586.7	1	100	1000	0	0
023	5	52	?	N	f	469.3	NA	3	56	9	24	i	n	1087.06	1	100	100	0	0
023	5	53	?	P	d	1120.14	NA	9	24	2	56	i	n	435.88	1	100	1000	0	0
023	5	54	?	N	f	419.51	NA	7	24	4	56	i	j	1887.0	1	100	100	0	0
023	5	55	?	P	d	519.5	NA	8	24	2	56	i	n	970.47	1	1000	1000	0	0
023	5	56	?	N	f	419.91	NA	3	56	9	24	i	n	1070.39	1	100	100	0	0
023	5	57	?	P	d	418.62	NA	9	56	4	24	c	j	2553.53	1	100	1000	0	0
023	5	58	?	N	f	269.18	NA	7	56	2	24	c	j	1001.14	1	100	1000	0	0
023	5	59	?	N	f	269.25	NA	7	24	3	56	i	j	919.96	1	1000	100	0	0
023	5	60	?	P	d	486.15	NA	9	24	4	56	i	n	851.03	1	100	100	0	0
023	5	61	?	P	d	419.52	NA	8	56	3	24	c	j	885.24	1	1000	100	0	0
023	5	62	?	N	f	836.62	NA	4	24	8	56	c	n	1103.93	1	100	100	0	0
023	5	63	?	N	f	485.97	NA	2	56	7	24	i	n	870.09	1	100	1000	0	0
023	5	64	?	N	f	85.55	NA	3	56	8	24	i	n	520.44	1	1000	1000	0	0
023	5	65	?	P	d	202.23	NA	8	24	4	56	i	n	519.62	1	1000	100	0	0
023	6	1	?	P	d	419.54	NA	8	24	4	56	i	n	703.65	1	1000	1000	-1	0
023	6	2	?	P	d	252.41	NA	2	24	9	56	c	n	784.88	1	1000	100	0	0
023	6	3	?	P	d	536.18	NA	4	56	9	24	i	j	720.18	1	100	100	0	0
023	6	4	?	P	d	436.11	NA	9	56	2	24	c	j	520.09	1	100	100	0	0
023	6	5	?	P	d	753.11	NA	4	56	8	24	i	j	486.89	1	100	1000	0	0
023	6	6	?	N	f	119.06	NA	3	56	7	24	i	n	653.16	1	1000	1000	0	0
023	6	7	?	N	f	384.26	NA	4	56	7	24	i	n	1687.24	1	1000	100	0	0
023	6	8	?	N	f	319.1	NA	3	56	7	24	i	n	953.7	1	100	100	0	0
023	6	9	?	N	f	352.76	NA	9	24	4	56	i	j	803.14	1	100	1000	0	0
023	6	10	?	N	f	369.36	NA	3	56	8	24	i	n	603.81	1	100	1000	0	0
023	6	11	?	P	d	402.72	NA	8	56	2	24	c	j	402.54	1	1000	100	0	0
023	6	12	?	P	d	536.21	NA	9	56	4	24	c	j	486.57	1	100	100	0	0
023	6	13	?	P	d	402.76	NA	7	24	3	56	i	n	686.41	1	100	1000	0	0
023	6	14	?	P	d	319.13	NA	7	56	2	24	c	j	486.58	1	100	1000	0	0
023	6	15	?	P	d	486.23	NA	7	24	4	56	i	n	536.5	1	100	1000	0	0
023	6	16	?	N	f	1637.56	NA	3	24	8	56	c	n	1603.76	1	100	100	0	0
023	6	17	?	N	f	335.95	NA	2	56	9	24	i	n	803.18	1	100	100	0	0
023	6	18	?	N	f	185.83	NA	9	56	3	24	c	j	519.65	1	1000	1000	0	0
023	6	19	?	N	f	436.13	NA	8	24	2	56	i	j	670.12	1	100	1000	0	0
023	6	20	?	N	f	302.7	NA	9	24	3	56	i	j	602.55	1	1000	100	0	0
023	6	21	?	P	d	1670.83	NA	8	56	4	24	c	j	619.93	1	100	100	0	0
023	6	22	?	P	d	368.84	NA	3	24	7	56	c	n	486.81	1	100	1000	0	0
023	6	23	?	P	d	369.17	NA	4	24	9	56	c	n	553.23	1	1000	100	0	0
023	6	24	?	P	d	619.45	NA	2	24	8	56	c	n	620.2	1	100	1000	0	0
023	6	25	?	P	d	385.49	NA	3	24	9	56	c	n	820.96	1	100	100	0	0
023	6	26	?	N	f	269.24	NA	7	56	2	24	c	j	603.13	1	1000	1000	0	0
023	6	27	?	N	f	318.94	NA	9	24	3	56	i	j	1003.65	1	1000	100	0	0
023	6	28	?	N	f	520.04	NA	7	24	2	56	i	j	653.73	1	100	1000	0	0
023	6	29	?	N	f	302.38	NA	4	24	9	56	c	n	1003.67	1	1000	100	0	0
023	6	30	?	N	f	402.6	NA	8	24	2	56	i	j	637.0	1	100	100	0	0
023	6	31	?	P	d	269.52	NA	3	24	9	56	c	n	403.02	1	1000	1000	0	0
023	6	32	?	P	d	302.58	NA	4	56	8	24	i	j	653.46	1	1000	1000	0	0
023	6	33	?	P	d	402.78	NA	3	24	8	56	c	n	517.69	1	100	1000	0	0
023	6	34	?	P	d	335.89	NA	8	24	4	56	i	n	937.1	1	1000	1000	0	0
023	6	35	?	P	d	402.84	NA	7	24	2	56	i	n	1487.64	1	100	1000	0	0
023	6	36	?	N	f	669.31	NA	9	56	3	24	c	j	768.37	1	1000	1000	0	0
023	6	37	?	N	f	352.21	NA	8	56	2	24	c	j	519.44	1	100	1000	0	0
023	6	38	?	N	f	386.02	NA	3	24	8	56	c	n	603.42	1	100	1000	0	0
023	6	39	?	N	f	385.72	NA	7	56	2	24	c	j	452.92	1	1000	1000	0	0
023	6	40	?	N	f	469.52	NA	7	56	4	24	c	j	953.77	1	100	100	0	0
023	6	41	?	P	d	519.51	NA	9	24	3	56	i	n	1353.94	1	100	100	0	0
023	6	42	?	P	d	169.01	NA	4	56	9	24	i	j	1068.1	1	1000	100	0	0
023	6	43	?	P	d	419.8	NA	2	56	8	24	i	j	2521.77	1	100	100	0	0
023	6	44	?	P	d	535.31	NA	8	56	3	24	c	j	553.27	1	1000	100	0	0
023	6	45	?	P	d	319.78	NA	2	24	7	56	c	n	987.52	1	1000	1000	0	0
023	6	46	?	N	f	285.53	NA	3	56	9	24	i	n	1453.97	1	1000	100	0	0
023	6	47	?	N	f	269.2	NA	4	24	7	56	c	n	885.62	1	1000	1000	0	0
023	6	48	?	N	f	235.76	NA	2	56	9	24	i	n	602.99	1	1000	100	0	0
023	6	49	?	N	f	319.36	NA	8	24	3	56	i	j	603.64	1	1000	1000	0	0
023	6	50	?	N	f	285.76	NA	9	56	2	24	c	j	851.19	1	100	1000	0	0
023	6	51	?	P	d	252.6	NA	4	56	9	24	i	j	1237.46	1	1000	1000	0	0
023	6	52	?	P	d	269.3	NA	9	24	2	56	i	n	1120.2	1	1000	1000	0	0
023	6	53	?	P	d	719.11	NA	3	56	7	24	i	j	802.42	1	100	100	0	0
023	6	54	?	P	d	920.09	NA	8	56	2	24	c	j	536.02	1	1000	100	0	0
023	6	55	?	P	d	252.69	NA	9	24	4	56	i	n	535.76	1	1000	100	0	0
023	6	56	?	N	f	552.08	NA	3	24	9	56	c	n	1119.86	1	100	100	0	0
023	6	57	?	N	f	302.3	NA	7	24	2	56	i	n	603.07	0	1000	1000	0	0
023	6	58	?	N	f	1237.25	NA	9	56	4	24	c	j	1387.48	1	100	1000	0	1
023	6	59	?	N	f	436.19	NA	8	24	3	56	i	n	603.19	0	1000	100	0	0
023	6	60	?	N	f	1153.83	NA	2	24	9	56	c	n	653.26	1	100	100	0	1
023	6	61	?	N	f	386.1	NA	3	56	9	24	i	n	851.52	1	1000	1000	0	0
023	6	62	?	N	f	319.42	NA	2	24	8	56	c	n	870.41	1	1000	1000	0	0
023	6	63	?	N	f	335.86	NA	3	56	7	24	i	n	819.77	1	100	100	0	0
023	6	64	?	N	f	302.67	NA	7	56	4	24	c	j	920.27	1	1000	100	0	0
023	6	65	?	N	f	168.82	NA	2	24	8	56	c	n	903.64	1	1000	100	0	0
