subj	block	trial	task_cue	task	choice_resp	choiceRT	choice_acc	topnum	topsize	botnum	botsize	cong	task_resp	taskRT	task_acc	RSI	CSI	altRep	E1
025	1	1	?	P	d	2071.24	NA	7	56	3	24	c	j	686.54	1	100	1000	-1	0
025	1	2	?	P	d	2488.55	NA	8	56	4	24	c	j	553.09	1	100	100	0	0
025	1	3	?	N	f	1186.91	NA	7	56	2	24	c	n	969.19	0	100	100	0	0
025	1	4	?	N	f	402.51	NA	3	56	8	24	i	n	803.19	1	1000	1000	0	1
025	1	5	?	P	d	2471.99	NA	9	24	4	56	i	j	686.36	0	100	1000	0	0
025	1	6	?	N	f	1386.63	NA	7	56	2	24	c	j	686.53	1	1000	100	0	1
025	1	7	?	P	d	686.57	NA	4	24	8	56	c	n	887.29	1	1000	100	0	0
025	1	8	?	P	d	435.46	NA	7	56	2	24	c	j	770.54	1	1000	1000	0	0
025	1	9	?	N	f	653.46	NA	3	24	9	56	c	n	954.25	1	1000	1000	0	0
025	1	10	?	N	f	920.18	NA	4	56	8	24	i	n	1353.93	1	1000	1000	0	0
025	1	11	?	N	f	1438.25	NA	9	56	3	24	c	j	1037.68	1	100	100	0	0
025	1	12	?	P	d	151.69	NA	9	56	2	24	c	j	1454.26	1	1000	100	0	0
025	1	13	?	P	d	1587.13	NA	3	56	9	24	i	j	1653.68	1	100	100	0	0
025	1	14	?	P	d	1804.51	NA	8	56	2	24	c	j	1054.23	1	100	1000	0	0
025	1	15	?	N	f	1120.16	NA	7	24	4	56	i	j	1871.21	1	100	1000	0	0
025	1	16	?	N	f	1286.95	NA	2	56	7	24	i	n	1154.0	1	100	100	0	0
025	1	17	?	P	d	1303.9	NA	9	56	3	24	c	j	653.37	1	100	1000	0	0
025	1	18	?	P	d	336.11	NA	2	56	7	24	i	j	1436.92	1	1000	100	0	0
025	1	19	?	N	f	1319.65	NA	7	56	3	24	c	j	903.88	1	100	100	0	0
025	1	20	?	N	f	1754.39	NA	2	24	7	56	c	n	919.86	1	100	1000	0	0
025	1	21	?	P	d	352.84	NA	3	56	7	24	i	j	1368.64	1	1000	1000	0	0
025	1	22	?	P	d	1637.69	NA	2	56	9	24	i	j	1737.51	1	100	100	0	0
025	1	23	?	N	f	435.86	NA	3	56	7	24	i	n	1087.22	1	1000	100	0	0
025	1	24	?	N	f	1170.31	NA	9	24	2	56	i	n	1237.63	0	100	1000	0	0
025	1	25	?	P	d	450.91	NA	9	56	4	24	c	j	786.33	1	1000	100	0	1
025	1	26	?	P	d	435.92	NA	9	24	3	56	i	n	1070.46	1	1000	100	0	0
025	1	27	?	P	d	635.56	NA	2	24	7	56	c	n	820.08	1	1000	100	0	0
025	1	28	?	N	f	5274.28	NA	3	24	7	56	c	n	1620.76	1	100	100	0	0
025	1	29	?	N	f	1153.23	NA	4	24	9	56	c	n	686.48	1	100	100	0	0
025	1	30	?	P	d	436.06	NA	3	24	7	56	c	n	986.24	1	1000	1000	0	0
025	1	31	?	P	d	2054.49	NA	7	24	2	56	i	n	1919.67	1	1000	100	0	0
025	1	32	?	N	f	11915.28	NA	3	56	9	24	i	n	936.63	1	1000	1000	0	0
025	1	33	?	N	f	1768.84	NA	9	24	4	56	i	j	2522.14	1	100	1000	0	0
025	1	34	?	P	d	2621.43	NA	9	24	3	56	i	n	1554.36	1	100	1000	0	0
025	1	35	?	N	f	3923.35	NA	7	24	2	56	i	j	1304.4	1	100	100	0	0
025	1	36	?	N	f	419.41	NA	8	24	3	56	i	j	903.14	1	1000	100	0	0
025	1	37	?	P	d	1987.83	NA	8	24	4	56	i	n	836.5	1	100	1000	0	0
025	1	38	?	P	d	703.18	NA	8	56	3	24	c	j	753.66	1	1000	100	0	0
025	1	39	?	P	d	702.36	NA	9	24	2	56	i	n	1171.12	1	1000	1000	0	0
025	1	40	?	N	f	1103.66	NA	3	24	8	56	c	n	702.97	1	100	1000	0	0
025	1	41	?	N	f	752.73	NA	2	24	9	56	c	n	553.64	1	1000	1000	0	0
025	1	42	?	P	d	619.35	NA	4	56	8	24	i	j	1520.97	1	1000	1000	0	0
025	1	43	?	P	d	2504.98	NA	9	24	2	56	i	n	1454.47	1	100	100	0	0
025	1	44	?	P	d	468.9	NA	4	56	8	24	i	j	1271.04	1	1000	1000	0	0
025	1	45	?	N	f	15586.27	NA	2	24	7	56	c	n	1420.33	1	100	100	0	0
025	1	46	?	N	f	402.95	NA	3	24	8	56	c	n	700.96	1	1000	100	0	0
025	1	47	?	P	d	453.19	NA	2	56	8	24	i	j	1019.84	1	1000	100	0	0
025	1	48	?	P	d	2171.49	NA	4	24	7	56	c	n	1836.32	1	100	1000	0	0
025	1	49	?	N	f	1787.5	NA	8	24	3	56	i	j	2054.2	1	100	100	0	0
025	1	50	?	N	f	1153.57	NA	9	56	4	24	c	j	836.85	1	100	1000	0	0
025	1	51	?	P	d	2589.22	NA	9	56	2	24	c	j	936.88	1	100	1000	0	0
025	1	52	?	P	d	536.21	NA	3	24	7	56	c	n	1604.13	1	1000	1000	0	0
025	1	53	?	P	d	2221.3	NA	7	24	2	56	i	j	686.59	0	100	100	0	0
025	1	54	?	N	f	3355.95	NA	4	24	7	56	c	n	1488.05	1	100	1000	0	1
025	1	55	?	N	f	1036.93	NA	9	24	3	56	i	j	2020.46	1	1000	1000	0	0
025	1	56	?	P	d	135.42	NA	4	24	9	56	c	n	886.47	1	1000	100	0	0
025	1	57	?	P	d	1070.22	NA	8	24	3	56	i	n	1154.46	1	100	1000	0	0
025	1	58	?	N	f	1320.59	NA	4	24	8	56	c	n	1403.86	1	100	100	0	0
025	1	59	?	N	f	435.82	NA	7	56	2	24	c	j	970.64	1	1000	1000	0	0
025	1	60	?	P	d	1304.01	NA	4	56	7	24	i	n	1086.8	0	1000	100	0	0
025	1	61	?	P	d	3856.82	NA	7	24	2	56	i	n	1588.97	1	100	100	0	1
025	1	62	?	N	f	235.97	NA	9	56	4	24	c	j	1003.85	1	1000	1000	0	0
025	1	63	?	N	f	1001.56	NA	8	24	2	56	i	n	1337.44	0	100	1000	0	0
025	1	64	?	P	d	1003.33	NA	9	24	3	56	i	n	1988.15	1	1000	100	0	1
025	1	65	?	P	d	667.66	NA	9	56	2	24	c	j	1003.28	1	1000	1000	0	0
025	2	1	?	P	d	4941.37	NA	2	56	7	24	i	j	902.56	1	1000	1000	-1	0
025	2	2	?	N	f	669.48	NA	4	56	8	24	i	n	1971.51	1	1000	1000	0	0
025	2	3	?	N	f	986.7	NA	9	24	2	56	i	j	835.55	1	100	1000	0	0
025	2	4	?	N	f	1387.21	NA	7	24	3	56	i	j	1137.16	1	100	100	0	0
025	2	5	?	P	d	1320.48	NA	4	24	7	56	c	n	936.98	1	100	100	0	0
025	2	6	?	P	d	486.35	NA	9	56	3	24	c	j	1754.96	1	1000	100	0	0
025	2	7	?	P	d	452.47	NA	7	56	2	24	c	j	1003.99	1	1000	100	0	0
025	2	8	?	P	d	1821.06	NA	8	24	4	56	i	n	1053.44	1	100	1000	0	0
025	2	9	?	N	f	1186.46	NA	2	24	9	56	c	n	1370.7	1	100	100	0	0
025	2	10	?	N	f	1153.52	NA	4	24	9	56	c	n	1003.66	1	100	1000	0	0
025	2	11	?	N	f	785.99	NA	3	56	7	24	i	n	1203.1	1	1000	100	0	0
025	2	12	?	P	d	486.36	NA	7	24	4	56	i	n	1855.13	1	1000	1000	0	0
025	2	13	?	P	d	636.19	NA	2	56	8	24	i	j	1303.67	1	1000	1000	0	0
025	2	14	?	P	d	1771.05	NA	4	24	9	56	c	n	1518.38	1	100	100	0	0
025	2	15	?	P	d	1136.3	NA	7	56	3	24	c	j	1670.54	1	1000	1000	0	0
025	2	16	?	N	f	1319.67	NA	2	56	7	24	i	n	2038.73	1	100	100	0	0
025	2	17	?	N	f	1820.91	NA	7	56	3	24	c	j	1454.18	1	100	100	0	0
025	2	18	?	P	d	886.38	NA	4	24	8	56	c	n	1187.2	1	1000	1000	0	0
025	2	19	?	N	f	2204.49	NA	7	56	2	24	c	j	1087.34	1	100	100	0	0
025	2	20	?	N	f	486.17	NA	3	56	8	24	i	n	985.89	1	1000	1000	0	0
025	2	21	?	N	f	886.81	NA	4	56	8	24	i	n	1954.95	1	1000	100	0	0
025	2	22	?	P	d	519.74	NA	8	56	2	24	c	j	736.5	1	1000	1000	0	0
025	2	23	?	P	d	836.6	NA	9	56	4	24	c	j	687.15	1	1000	1000	0	0
025	2	24	?	P	d	436.6	NA	8	24	3	56	i	n	886.58	1	1000	100	0	0
025	2	25	?	N	f	870.1	NA	9	24	4	56	i	j	1120.37	1	100	1000	0	0
025	2	26	?	N	f	386.32	NA	3	56	7	24	i	n	1037.44	1	1000	100	0	0
025	2	27	?	N	f	919.86	NA	7	24	4	56	i	j	919.92	1	1000	1000	0	0
025	2	28	?	P	d	402.73	NA	2	24	9	56	c	n	636.39	1	1000	1000	0	0
025	2	29	?	P	d	1320.43	NA	8	24	3	56	i	n	1220.3	1	100	100	0	0
025	2	30	?	N	f	619.59	NA	2	24	7	56	c	n	1002.62	1	1000	100	0	0
025	2	31	?	N	f	586.15	NA	7	24	3	56	i	j	1203.75	1	1000	1000	0	0
025	2	32	?	P	d	1236.65	NA	2	56	8	24	i	j	1654.72	1	100	1000	0	0
025	2	33	?	P	d	937.04	NA	7	24	3	56	i	n	1137.02	1	100	100	0	0
025	2	34	?	N	f	869.96	NA	7	56	4	24	c	j	1020.17	1	100	1000	0	0
025	2	35	?	P	d	1570.85	NA	3	24	8	56	c	n	1270.51	1	100	1000	0	0
025	2	36	?	N	f	453.18	NA	8	24	4	56	i	n	1837.6	0	1000	100	0	0
025	2	37	?	P	d	669.64	NA	2	24	9	56	c	n	1637.51	1	1000	100	0	1
025	2	38	?	P	d	653.35	NA	9	24	4	56	i	n	1170.09	1	1000	1000	0	0
025	2	39	?	N	f	1804.57	NA	7	24	3	56	i	n	1854.18	0	100	1000	0	0
025	2	40	?	N	f	803.71	NA	4	24	8	56	c	n	986.65	1	1000	1000	0	1
025	2	41	?	P	d	1335.37	NA	9	24	3	56	i	n	1053.63	1	100	100	0	0
025	2	42	?	P	d	936.93	NA	7	56	4	24	c	j	703.2	1	100	100	0	0
025	2	43	?	N	f	502.93	NA	3	56	7	24	i	n	970.6	1	100	1000	0	0
025	2	44	?	N	f	52.2	NA	9	56	2	24	c	j	586.26	1	1000	1000	0	0
025	2	45	?	P	d	586.14	NA	3	56	8	24	i	j	770.42	1	1000	1000	0	0
025	2	46	?	P	d	1003.2	NA	8	56	2	24	c	j	486.65	1	100	1000	0	0
025	2	47	?	N	f	102.27	NA	8	24	4	56	i	n	752.77	0	1000	100	0	0
025	2	48	?	N	f	869.83	NA	9	56	2	24	c	j	837.5	1	1000	100	0	1
025	2	49	?	P	d	1270.75	NA	4	24	8	56	c	n	1069.98	1	100	1000	0	0
025	2	50	?	N	f	1020.09	NA	9	56	2	24	c	j	786.76	1	100	1000	0	0
025	2	51	?	N	f	452.66	NA	7	24	3	56	i	j	1037.02	1	1000	100	0	0
025	2	52	?	N	f	419.04	NA	4	24	7	56	c	n	953.34	1	1000	100	0	0
025	2	53	?	P	d	936.75	NA	2	56	8	24	i	j	1470.69	1	100	100	0	0
025	2	54	?	P	d	668.03	NA	7	56	4	24	c	j	1303.94	1	100	1000	0	0
025	2	55	?	P	d	986.38	NA	7	56	3	24	c	j	802.89	1	100	100	0	0
025	2	56	?	P	d	585.97	NA	2	24	9	56	c	n	636.83	1	100	100	0	0
025	2	57	?	N	f	536.49	NA	3	24	7	56	c	n	1170.2	1	1000	1000	0	0
025	2	58	?	N	f	536.32	NA	8	24	4	56	i	j	1003.27	1	100	100	0	0
025	2	59	?	N	f	619.83	NA	2	56	8	24	i	n	987.55	1	100	1000	0	0
025	2	60	?	N	f	269.24	NA	7	56	4	24	c	j	703.11	1	1000	100	0	0
025	2	61	?	P	d	552.85	NA	9	24	2	56	i	n	1152.01	1	100	1000	0	0
025	2	62	?	P	d	1553.76	NA	3	24	9	56	c	n	653.12	1	1000	100	0	0
025	2	63	?	P	d	819.06	NA	2	56	7	24	i	j	1087.29	1	100	100	0	0
025	2	64	?	P	d	1720.28	NA	4	24	7	56	c	n	1454.33	1	100	1000	0	0
025	2	65	?	N	f	2521.92	NA	8	24	2	56	i	j	1704.78	1	1000	100	0	0
025	3	1	?	N	f	2889.13	NA	3	56	7	24	i	n	1018.07	1	100	100	-1	0
025	3	2	?	N	f	1136.67	NA	2	56	7	24	i	n	670.22	1	100	1000	0	0
025	3	3	?	P	d	452.99	NA	8	24	3	56	i	n	1737.41	1	1000	100	0	0
025	3	4	?	P	d	485.52	NA	8	56	2	24	c	j	687.41	1	1000	100	0	0
025	3	5	?	N	f	519.3	NA	3	56	8	24	i	n	1704.15	1	100	100	0	0
025	3	6	?	N	f	719.62	NA	2	24	8	56	c	n	803.58	1	100	100	0	0
025	3	7	?	P	d	453.02	NA	9	56	3	24	c	j	801.14	1	100	1000	0	0
025	3	8	?	P	d	436.34	NA	4	56	8	24	i	j	1151.75	1	100	1000	0	0
025	3	9	?	N	f	969.99	NA	3	56	9	24	i	n	786.43	1	100	1000	0	0
025	3	10	?	N	f	670.38	NA	2	56	8	24	i	n	569.75	1	1000	1000	0	0
025	3	11	?	P	d	453.0	NA	3	56	7	24	i	j	836.87	1	1000	100	0	0
025	3	12	?	P	d	436.04	NA	8	56	4	24	c	j	669.92	1	1000	1000	0	0
025	3	13	?	N	f	469.43	NA	8	24	3	56	i	j	2621.73	1	1000	100	0	0
025	3	14	?	N	f	653.02	NA	2	24	9	56	c	n	1019.82	1	1000	100	0	0
025	3	15	?	P	d	2421.33	NA	8	56	4	24	c	j	2588.25	1	100	100	0	0
025	3	16	?	P	d	3105.9	NA	7	24	3	56	i	n	2738.3	1	100	100	0	0
025	3	17	?	N	f	552.03	NA	2	24	7	56	c	n	870.29	1	1000	1000	0	0
025	3	18	?	N	f	1136.84	NA	9	56	4	24	c	j	1136.82	1	1000	100	0	0
025	3	19	?	N	f	1420.4	NA	2	56	7	24	i	n	820.73	1	100	1000	0	0
025	3	20	?	P	d	2571.76	NA	3	56	7	24	i	j	1237.54	1	100	100	0	0
025	3	21	?	P	d	1020.45	NA	7	56	2	24	c	j	937.02	1	100	100	0	0
025	3	22	?	N	f	702.94	NA	3	24	8	56	c	n	767.72	1	1000	100	0	0
025	3	23	?	P	d	2304.88	NA	8	24	4	56	i	n	1253.87	1	100	100	0	0
025	3	24	?	P	d	236.37	NA	2	56	9	24	i	j	1004.0	1	1000	1000	0	0
025	3	25	?	N	f	1837.6	NA	3	24	9	56	c	n	686.26	1	100	1000	0	0
025	3	26	?	N	f	770.21	NA	4	24	9	56	c	n	636.14	1	100	100	0	0
025	3	27	?	N	f	1187.04	NA	8	24	2	56	i	j	1604.28	1	100	1000	0	0
025	3	28	?	P	d	886.37	NA	3	56	7	24	i	j	970.19	1	100	1000	0	0
025	3	29	?	P	d	536.2	NA	9	24	4	56	i	n	1153.25	1	1000	1000	0	0
025	3	30	?	N	f	1421.61	NA	7	56	2	24	c	j	986.79	1	100	1000	0	0
025	3	31	?	N	f	1270.57	NA	3	24	8	56	c	n	903.81	1	100	1000	0	0
025	3	32	?	N	f	636.3	NA	7	24	2	56	i	j	886.47	1	1000	1000	0	0
025	3	33	?	P	d	920.02	NA	3	56	7	24	i	j	1553.52	1	100	100	0	0
025	3	34	?	P	d	1237.09	NA	4	24	9	56	c	n	1070.91	1	1000	1000	0	0
025	3	35	?	P	d	1503.79	NA	8	24	3	56	i	n	1252.79	1	100	100	0	0
025	3	36	?	N	f	786.35	NA	4	24	7	56	c	n	686.91	1	100	100	0	0
025	3	37	?	N	f	903.56	NA	2	56	8	24	i	n	1503.82	1	1000	1000	0	0
025	3	38	?	P	d	719.41	NA	7	56	3	24	c	j	769.75	1	100	100	0	0
025	3	39	?	P	d	836.44	NA	2	24	9	56	c	n	703.41	1	100	100	0	0
025	3	40	?	P	d	469.65	NA	4	56	9	24	i	j	1520.48	1	100	100	0	0
025	3	41	?	N	f	68.92	NA	2	56	9	24	i	n	1954.66	1	1000	100	0	0
025	3	42	?	N	f	419.07	NA	8	24	3	56	i	j	885.66	1	100	100	0	0
025	3	43	?	P	d	702.53	NA	2	56	9	24	i	j	2505.26	1	100	1000	0	0
025	3	44	?	P	d	635.69	NA	4	56	8	24	i	j	1036.71	1	1000	100	0	0
025	3	45	?	N	f	870.18	NA	9	56	3	24	c	j	1354.4	1	1000	100	0	0
025	3	46	?	P	d	1687.64	NA	9	56	4	24	c	j	1070.6	1	1000	1000	0	0
025	3	47	?	N	f	435.98	NA	8	56	3	24	c	j	853.34	1	1000	1000	0	0
025	3	48	?	P	d	652.82	NA	4	56	8	24	i	j	1486.98	1	1000	1000	0	0
025	3	49	?	N	f	1154.01	NA	3	56	8	24	i	n	1721.33	1	100	1000	0	0
025	3	50	?	N	f	770.01	NA	9	56	4	24	c	j	1069.97	1	100	1000	0	0
025	3	51	?	P	d	419.26	NA	8	24	3	56	i	n	1270.65	1	1000	100	0	0
025	3	52	?	P	d	486.13	NA	8	56	2	24	c	j	2555.29	1	1000	1000	0	0
025	3	53	?	N	f	1053.06	NA	7	56	4	24	c	j	1487.68	1	100	100	0	0
025	3	54	?	N	f	970.07	NA	3	24	8	56	c	n	1421.14	1	100	1000	0	0
025	3	55	?	P	d	352.75	NA	9	24	2	56	i	n	1470.62	1	1000	1000	0	0
025	3	56	?	P	d	1720.94	NA	3	24	8	56	c	n	1385.78	1	1000	100	0	0
025	3	57	?	N	f	1019.95	NA	2	24	7	56	c	n	1187.2	1	1000	100	0	0
025	3	58	?	N	f	1637.46	NA	9	24	4	56	i	j	1286.87	1	1000	1000	0	0
025	3	59	?	P	d	3489.38	NA	2	24	9	56	c	j	252.59	0	100	1000	0	0
025	3	60	?	P	d	3756.61	NA	8	56	4	24	c	j	1337.44	1	100	1000	0	1
025	3	61	?	N	f	836.54	NA	3	24	8	56	c	n	970.52	1	1000	1000	0	0
025	3	62	?	P	d	869.85	NA	2	56	7	24	i	j	2538.35	1	1000	100	0	0
025	3	63	?	N	f	703.28	NA	3	24	8	56	c	n	2038.47	1	1000	1000	0	0
025	3	64	?	P	d	1120.35	NA	8	24	4	56	i	n	2187.86	1	1000	100	0	0
025	3	65	?	P	d	519.58	NA	8	56	2	24	c	j	769.5	1	1000	100	0	0
025	4	1	?	P	d	1887.02	NA	8	24	2	56	i	n	1120.93	1	100	1000	-1	0
025	4	2	?	N	f	469.01	NA	4	56	8	24	i	n	1553.94	1	1000	1000	0	0
025	4	3	?	N	f	352.8	NA	2	24	8	56	c	n	736.81	1	1000	1000	0	0
025	4	4	?	P	d	352.74	NA	9	56	3	24	c	j	1153.72	1	1000	1000	0	0
025	4	5	?	P	d	1153.58	NA	8	24	2	56	i	n	919.17	1	100	100	0	0
025	4	6	?	P	d	319.5	NA	3	56	8	24	i	j	986.77	1	1000	100	0	0
025	4	7	?	N	f	535.79	NA	2	24	9	56	c	n	652.71	1	100	100	0	0
025	4	8	?	N	f	786.6	NA	4	56	9	24	i	n	887.32	1	100	1000	0	0
025	4	9	?	N	f	519.44	NA	8	24	3	56	i	j	753.16	1	100	100	0	0
025	4	10	?	P	d	903.39	NA	2	24	7	56	c	n	919.68	1	1000	100	0	0
025	4	11	?	P	d	467.73	NA	9	56	3	24	c	j	603.07	1	100	1000	0	0
025	4	12	?	P	d	752.83	NA	4	56	9	24	i	j	1052.73	1	100	1000	0	0
025	4	13	?	N	f	269.11	NA	2	56	7	24	i	n	1270.47	1	1000	100	0	0
025	4	14	?	N	f	386.0	NA	7	56	3	24	c	j	836.32	1	1000	1000	0	0
025	4	15	?	P	d	634.56	NA	7	24	2	56	i	n	1053.8	1	100	100	0	0
025	4	16	?	P	d	335.92	NA	9	56	4	24	c	j	619.5	1	1000	100	0	0
025	4	17	?	P	d	586.01	NA	9	24	3	56	i	n	1103.47	1	100	100	0	0
025	4	18	?	N	f	452.55	NA	9	24	2	56	i	j	1637.08	1	100	1000	0	0
025	4	19	?	N	f	486.26	NA	3	24	8	56	c	n	836.71	1	1000	1000	0	0
025	4	20	?	N	f	535.6	NA	2	24	8	56	c	n	736.03	1	100	1000	0	0
025	4	21	?	P	d	352.49	NA	4	24	9	56	c	n	619.64	1	100	100	0	0
025	4	22	?	P	d	402.74	NA	7	24	2	56	i	n	1003.36	1	1000	1000	0	0
025	4	23	?	P	d	717.79	NA	9	24	3	56	i	n	1170.2	1	100	1000	0	0
025	4	24	?	N	f	552.75	NA	7	56	4	24	c	j	551.62	1	100	1000	0	0
025	4	25	?	N	f	402.84	NA	7	24	2	56	i	j	1137.31	1	100	1000	0	0
025	4	26	?	N	f	420.1	NA	7	24	3	56	i	j	903.45	1	100	100	0	0
025	4	27	?	P	d	135.87	NA	9	24	4	56	i	n	1053.55	1	1000	100	0	0
025	4	28	?	P	d	503.25	NA	7	56	3	24	c	j	653.17	1	100	100	0	0
025	4	29	?	P	d	853.4	NA	4	56	7	24	i	j	2521.96	1	1000	100	0	0
025	4	30	?	N	f	1970.74	NA	2	56	9	24	i	n	803.12	1	1000	100	0	0
025	4	31	?	N	f	803.06	NA	7	56	3	24	c	j	768.1	1	1000	100	0	0
025	4	32	?	N	f	1086.52	NA	4	24	9	56	c	n	702.65	1	100	1000	0	0
025	4	33	?	P	d	352.78	NA	2	24	9	56	c	n	1136.52	1	1000	100	0	0
025	4	34	?	P	d	452.79	NA	9	56	4	24	c	j	819.94	1	1000	1000	0	0
025	4	35	?	P	d	2504.97	NA	9	56	3	24	c	j	970.17	1	100	100	0	0
025	4	36	?	N	f	1337.05	NA	7	56	4	24	c	j	619.07	1	100	1000	0	0
025	4	37	?	N	f	436.23	NA	3	24	9	56	c	n	703.65	1	100	1000	0	0
025	4	38	?	N	f	519.69	NA	2	56	8	24	i	n	1153.69	1	100	1000	0	0
025	4	39	?	N	f	519.55	NA	3	56	8	24	i	n	817.93	1	100	100	0	0
025	4	40	?	P	d	469.38	NA	4	56	7	24	i	j	1186.48	1	1000	1000	0	0
025	4	41	?	P	d	352.05	NA	8	24	2	56	i	n	2139.17	1	1000	100	0	0
025	4	42	?	P	d	553.22	NA	3	56	9	24	i	j	1336.56	1	100	1000	0	0
025	4	43	?	N	f	469.6	NA	4	24	8	56	c	n	653.89	1	100	1000	0	0
025	4	44	?	N	f	269.31	NA	9	56	3	24	c	j	804.51	1	1000	1000	0	0
025	4	45	?	N	f	419.31	NA	7	24	4	56	i	j	1621.64	1	1000	1000	0	0
025	4	46	?	P	d	703.33	NA	3	24	9	56	c	n	636.99	1	100	100	0	0
025	4	47	?	P	d	486.07	NA	2	24	7	56	c	n	619.16	1	1000	100	0	0
025	4	48	?	P	d	1137.36	NA	7	56	3	24	c	j	619.8	1	100	100	0	0
025	4	49	?	N	f	719.79	NA	4	24	7	56	c	n	1220.16	1	1000	1000	0	0
025	4	50	?	N	f	102.75	NA	2	56	9	24	i	n	1821.17	1	1000	1000	0	0
025	4	51	?	P	d	336.0	NA	8	24	4	56	i	n	1303.73	1	1000	1000	0	0
025	4	52	?	P	d	402.75	NA	2	56	9	24	i	j	1387.81	1	1000	100	0	0
025	4	53	?	N	f	602.94	NA	3	24	9	56	c	n	1037.22	1	100	100	0	0
025	4	54	?	N	f	635.82	NA	7	24	4	56	i	j	1003.99	1	100	100	0	0
025	4	55	?	N	f	719.78	NA	9	24	2	56	i	j	987.23	1	1000	100	0	0
025	4	56	?	N	f	985.86	NA	7	56	4	24	c	j	686.45	1	1000	100	0	0
025	4	57	?	P	d	602.89	NA	3	24	7	56	c	n	753.14	1	1000	100	0	0
025	4	58	?	P	d	418.24	NA	2	56	9	24	i	j	1019.51	1	1000	1000	0	0
025	4	59	?	P	d	853.02	NA	9	56	3	24	c	j	836.46	1	1000	100	0	0
025	4	60	?	P	d	1303.51	NA	9	56	4	24	c	j	1287.52	1	100	1000	0	0
025	4	61	?	N	f	1086.05	NA	2	24	7	56	c	n	1170.95	1	1000	1000	0	0
025	4	62	?	N	f	369.38	NA	7	24	4	56	i	j	2287.99	1	1000	1000	0	0
025	4	63	?	N	f	2121.35	NA	2	56	8	24	i	n	1804.83	1	100	1000	0	0
025	4	64	?	P	d	1954.43	NA	3	56	8	24	i	j	1319.81	1	100	100	0	0
025	4	65	?	P	d	1421.1	NA	8	56	4	24	c	j	753.82	1	100	100	0	0
025	5	1	?	N	f	1086.76	NA	4	56	9	24	i	n	1020.36	1	100	1000	-1	0
025	5	2	?	N	f	635.95	NA	3	24	9	56	c	n	753.31	1	1000	1000	0	0
025	5	3	?	P	d	535.99	NA	4	24	8	56	c	n	651.02	1	100	1000	0	0
025	5	4	?	P	d	452.41	NA	2	24	8	56	c	n	570.2	1	1000	1000	0	0
025	5	5	?	N	f	402.64	NA	9	56	3	24	c	j	686.59	1	1000	1000	0	0
025	5	6	?	P	d	719.59	NA	7	56	4	24	c	j	553.52	1	1000	1000	0	0
025	5	7	?	P	d	1186.43	NA	3	56	8	24	i	j	1386.87	1	100	100	0	0
025	5	8	?	P	d	703.11	NA	2	24	9	56	c	n	1020.84	1	100	1000	0	0
025	5	9	?	N	f	1020.13	NA	4	56	7	24	i	n	1588.0	1	100	1000	0	0
025	5	10	?	N	f	352.6	NA	3	24	8	56	c	n	820.0	1	1000	100	0	0
025	5	11	?	N	f	335.92	NA	4	56	9	24	i	n	920.16	1	1000	100	0	0
025	5	12	?	P	d	520.2	NA	3	24	9	56	c	n	553.55	1	100	1000	0	0
025	5	13	?	P	d	469.35	NA	4	24	8	56	c	n	569.55	1	100	100	0	0
025	5	14	?	P	d	335.99	NA	9	56	3	24	c	j	536.5	1	1000	100	0	0
025	5	15	?	N	f	386.36	NA	4	24	7	56	c	n	803.08	1	1000	100	0	0
025	5	16	?	N	f	500.9	NA	2	56	8	24	i	n	769.78	1	100	1000	0	0
025	5	17	?	N	f	419.61	NA	8	56	4	24	c	j	635.83	1	100	100	0	0
025	5	18	?	P	d	402.95	NA	3	24	9	56	c	n	652.88	1	100	1000	0	0
025	5	19	?	P	d	552.9	NA	8	24	2	56	i	n	1169.7	1	1000	100	0	0
025	5	20	?	N	f	218.91	NA	7	56	3	24	c	j	903.83	1	1000	1000	0	0
025	5	21	?	N	f	318.73	NA	4	24	7	56	c	n	719.65	1	1000	1000	0	0
025	5	22	?	N	f	651.29	NA	3	56	7	24	i	n	886.48	1	100	1000	0	0
025	5	23	?	N	f	486.1	NA	8	56	4	24	c	j	619.86	1	100	100	0	0
025	5	24	?	P	d	319.08	NA	9	56	3	24	c	j	1237.63	1	1000	100	0	0
025	5	25	?	P	d	519.29	NA	7	56	4	24	c	j	602.93	1	1000	100	0	0
025	5	26	?	P	d	634.25	NA	9	56	3	24	c	j	787.07	1	100	1000	0	0
025	5	27	?	N	f	1184.79	NA	2	56	8	24	i	n	1354.02	1	100	100	0	0
025	5	28	?	N	f	419.78	NA	8	24	3	56	i	j	1237.72	1	100	1000	0	0
025	5	29	?	N	f	419.45	NA	4	24	8	56	c	n	903.42	1	100	100	0	0
025	5	30	?	P	d	553.11	NA	9	24	2	56	i	n	1637.21	1	100	100	0	0
025	5	31	?	P	d	352.0	NA	4	56	9	24	i	j	1286.94	1	1000	1000	0	0
025	5	32	?	N	f	419.68	NA	3	24	8	56	c	n	936.67	1	1000	1000	0	0
025	5	33	?	N	f	18.97	NA	7	24	4	56	i	j	1771.75	1	1000	100	0	0
025	5	34	?	N	f	669.46	NA	2	56	9	24	i	n	1602.63	1	1000	100	0	0
025	5	35	?	P	d	269.24	NA	4	56	8	24	i	j	937.37	1	1000	100	0	0
025	5	36	?	P	d	336.21	NA	2	56	9	24	i	j	1168.07	1	1000	1000	0	0
025	5	37	?	N	f	335.51	NA	9	24	4	56	i	j	1054.07	1	1000	100	0	0
025	5	38	?	P	d	453.06	NA	2	56	8	24	i	j	1387.11	1	100	100	0	0
025	5	39	?	P	d	753.04	NA	7	56	4	24	c	j	1054.1	1	100	100	0	0
025	5	40	?	P	d	351.99	NA	9	56	3	24	c	j	719.82	1	100	1000	0	0
025	5	41	?	N	f	452.85	NA	8	24	4	56	i	j	953.16	1	100	1000	0	0
025	5	42	?	N	f	1053.61	NA	7	56	2	24	c	j	837.71	1	1000	100	0	0
025	5	43	?	N	f	419.36	NA	7	56	4	24	c	j	836.83	1	1000	1000	0	0
025	5	44	?	P	d	768.09	NA	9	56	3	24	c	j	986.79	1	100	1000	0	0
025	5	45	?	P	d	519.46	NA	4	56	7	24	i	j	1053.13	1	1000	1000	0	0
025	5	46	?	P	d	419.05	NA	7	24	2	56	i	n	987.56	1	1000	1000	0	0
025	5	47	?	P	d	1186.99	NA	4	24	8	56	c	n	1020.77	1	100	100	0	0
025	5	48	?	N	f	686.38	NA	2	56	8	24	i	n	2154.95	1	100	100	0	0
025	5	49	?	N	f	436.1	NA	8	56	4	24	c	j	1153.26	1	100	100	0	0
025	5	50	?	N	f	653.59	NA	2	24	7	56	c	n	686.53	1	1000	100	0	0
025	5	51	?	P	d	502.67	NA	7	56	4	24	c	j	869.87	1	100	1000	0	0
025	5	52	?	P	d	1054.26	NA	9	24	2	56	i	n	853.9	1	100	1000	0	0
025	5	53	?	P	d	519.75	NA	3	56	8	24	i	j	869.61	1	100	100	0	0
025	5	54	?	P	d	419.58	NA	4	56	7	24	i	j	1487.66	1	1000	100	0	0
025	5	55	?	N	f	585.94	NA	3	56	7	24	i	j	1087.28	0	100	100	0	0
025	5	56	?	N	f	1236.86	NA	9	24	2	56	i	j	869.97	1	100	1000	0	1
025	5	57	?	N	f	569.52	NA	7	24	3	56	i	j	970.21	1	100	1000	0	0
025	5	58	?	N	f	386.13	NA	4	56	8	24	i	n	902.79	1	1000	100	0	0
025	5	59	?	P	d	734.7	NA	2	56	8	24	i	j	1270.68	1	100	100	0	0
025	5	60	?	P	d	402.7	NA	4	24	9	56	c	n	937.01	1	1000	100	0	0
025	5	61	?	P	d	402.45	NA	7	24	3	56	i	n	1371.43	1	1000	1000	0	0
025	5	62	?	P	d	703.22	NA	4	24	9	56	c	n	1036.64	1	100	100	0	0
025	5	63	?	N	f	436.29	NA	3	56	9	24	i	n	1237.14	1	1000	1000	0	0
025	5	64	?	N	f	452.48	NA	9	24	4	56	i	j	884.57	1	1000	1000	0	0
025	5	65	?	N	f	736.58	NA	2	56	7	24	i	n	1036.75	1	1000	1000	0	0
025	6	1	?	N	f	2087.99	NA	7	24	3	56	i	j	970.59	1	1000	1000	-1	0
025	6	2	?	N	f	1403.66	NA	4	56	9	24	i	n	1637.29	1	100	100	0	0
025	6	3	?	N	f	319.56	NA	3	24	8	56	c	n	653.5	1	1000	1000	0	0
025	6	4	?	N	f	636.56	NA	4	56	8	24	i	n	886.66	1	100	100	0	0
025	6	5	?	P	d	401.83	NA	3	24	9	56	c	n	703.52	1	100	1000	0	0
025	6	6	?	P	d	520.49	NA	2	24	9	56	c	n	1037.63	1	100	1000	0	0
025	6	7	?	P	d	535.97	NA	3	56	9	24	i	j	1054.26	1	1000	1000	0	0
025	6	8	?	N	f	453.13	NA	8	56	2	24	c	j	1054.23	1	1000	100	0	0
025	6	9	?	N	f	519.69	NA	8	24	3	56	i	j	903.33	1	100	1000	0	0
025	6	10	?	N	f	519.38	NA	9	24	4	56	i	j	787.2	1	100	1000	0	0
025	6	11	?	N	f	436.38	NA	2	56	8	24	i	n	887.1	1	1000	100	0	0
025	6	12	?	P	d	452.9	NA	4	24	8	56	c	n	936.0	1	100	100	0	0
025	6	13	?	P	d	569.86	NA	2	56	7	24	i	j	1267.93	1	100	100	0	0
025	6	14	?	N	f	353.13	NA	8	56	4	24	c	j	1036.85	1	1000	100	0	0
025	6	15	?	N	f	402.75	NA	9	56	2	24	c	j	651.29	1	100	100	0	0
025	6	16	?	N	f	569.19	NA	4	24	9	56	c	n	835.85	1	1000	1000	0	0
025	6	17	?	P	d	402.97	NA	3	24	7	56	c	n	837.28	1	1000	100	0	0
025	6	18	?	P	d	502.92	NA	4	56	9	24	i	j	936.72	1	1000	1000	0	0
025	6	19	?	P	d	519.48	NA	7	24	2	56	i	n	870.66	1	1000	100	0	0
025	6	20	?	P	d	469.67	NA	7	56	4	24	c	j	820.61	1	1000	1000	0	0
025	6	21	?	P	d	1270.47	NA	9	56	3	24	c	j	770.34	1	100	100	0	0
025	6	22	?	N	f	335.93	NA	8	56	4	24	c	j	1053.32	1	1000	100	0	0
025	6	23	?	N	f	417.54	NA	2	56	8	24	i	n	1905.19	1	1000	1000	0	0
025	6	24	?	P	d	520.24	NA	8	24	3	56	i	n	1770.11	1	100	1000	0	0
025	6	25	?	P	d	553.06	NA	7	56	4	24	c	j	853.09	1	100	1000	0	0
025	6	26	?	P	d	920.03	NA	9	56	3	24	c	j	1136.75	1	100	100	0	0
025	6	27	?	N	f	536.18	NA	7	24	4	56	i	j	954.14	1	1000	1000	0	0
025	6	28	?	N	f	453.18	NA	9	56	3	24	c	j	670.01	1	100	1000	0	0
025	6	29	?	N	f	369.34	NA	2	56	8	24	i	n	818.33	1	1000	1000	0	0
025	6	30	?	N	f	402.63	NA	3	24	8	56	c	n	753.44	1	1000	1000	0	0
025	6	31	?	P	d	1220.12	NA	4	24	7	56	c	n	903.03	1	100	1000	0	0
025	6	32	?	P	d	1821.0	NA	9	24	2	56	i	n	1154.08	1	100	1000	0	0
025	6	33	?	P	d	702.88	NA	4	24	9	56	c	n	669.78	1	1000	100	0	0
025	6	34	?	P	d	787.65	NA	2	24	9	56	c	n	853.65	1	100	1000	0	0
025	6	35	?	N	f	369.29	NA	8	24	3	56	i	j	1237.3	1	1000	100	0	0
025	6	36	?	N	f	619.86	NA	9	24	2	56	i	j	719.68	1	1000	100	0	0
025	6	37	?	N	f	569.69	NA	8	56	3	24	c	j	886.52	1	1000	1000	0	0
025	6	38	?	N	f	753.91	NA	4	56	7	24	i	n	886.94	1	1000	1000	0	0
025	6	39	?	P	d	486.2	NA	7	24	2	56	i	n	2321.25	1	100	100	0	0
025	6	40	?	P	d	536.34	NA	4	24	7	56	c	n	669.65	1	100	100	0	0
025	6	41	?	P	d	1887.89	NA	8	24	3	56	i	n	919.93	1	100	1000	0	0
025	6	42	?	N	f	385.99	NA	2	56	7	24	i	n	1070.85	1	1000	100	0	0
025	6	43	?	N	f	485.86	NA	8	24	4	56	i	j	987.58	1	1000	100	0	0
025	6	44	?	N	f	569.5	NA	9	24	3	56	i	j	753.03	1	100	1000	0	0
025	6	45	?	N	f	1954.49	NA	8	24	2	56	i	j	753.37	1	100	1000	0	0
025	6	46	?	P	d	719.89	NA	3	24	7	56	c	n	719.66	1	100	100	0	0
025	6	47	?	P	d	568.99	NA	4	56	9	24	i	j	1103.99	1	100	100	0	0
025	6	48	?	P	d	519.53	NA	7	56	2	24	c	j	903.31	1	100	100	0	0
025	6	49	?	P	d	753.16	NA	9	56	4	24	c	j	619.3	1	1000	100	0	0
025	6	50	?	N	f	436.02	NA	2	56	7	24	i	n	1087.46	1	1000	1000	0	0
025	6	51	?	N	f	719.6	NA	3	24	8	56	c	n	636.51	1	100	100	0	0
025	6	52	?	N	f	653.05	NA	7	24	2	56	i	j	767.87	1	100	100	0	0
025	6	53	?	N	f	402.74	NA	3	24	9	56	c	n	636.4	1	1000	100	0	0
025	6	54	?	N	f	886.78	NA	4	56	8	24	i	n	786.81	1	100	100	0	0
025	6	55	?	P	d	1120.18	NA	7	24	3	56	i	n	1203.22	1	1000	100	0	0
025	6	56	?	P	d	369.42	NA	9	24	2	56	i	n	786.57	1	100	1000	0	0
025	6	57	?	P	d	686.34	NA	7	56	3	24	c	j	953.84	1	100	1000	0	0
025	6	58	?	N	f	602.7	NA	9	56	4	24	c	j	1053.45	1	1000	1000	0	0
025	6	59	?	N	f	1153.35	NA	7	56	2	24	c	j	736.07	1	100	1000	0	0
025	6	60	?	P	d	502.84	NA	3	56	7	24	i	j	1004.04	1	1000	1000	0	0
025	6	61	?	P	d	1685.58	NA	2	56	7	24	i	j	1520.84	1	100	100	0	0
025	6	62	?	P	d	419.44	NA	8	56	4	24	c	j	703.42	1	1000	1000	0	0
025	6	63	?	P	d	886.33	NA	3	56	8	24	i	j	903.99	1	1000	100	0	0
025	6	64	?	P	d	1821.13	NA	2	24	9	56	c	n	685.83	1	1000	1000	0	0
025	6	65	?	N	f	452.69	NA	4	24	8	56	c	n	1287.09	1	1000	100	0	0
