subj	block	trial	task_cue	task	choice_resp	choiceRT	choice_acc	topnum	topsize	botnum	botsize	cong	task_resp	taskRT	task_acc	RSI	CSI	altRep	E1
037	1	1	?	P	f	735.96	NA	3	24	9	56	c	n	517.88	1	100	1000	-1	0
037	1	2	?	P	f	1269.8	NA	4	56	7	24	i	j	668.13	1	1000	1000	0	0
037	1	3	?	P	f	1336.66	NA	9	56	2	24	c	j	468.97	1	100	1000	0	0
037	1	4	?	N	d	1587.14	NA	7	24	3	56	i	j	869.25	1	100	100	0	0
037	1	5	?	N	d	1619.87	NA	7	56	2	24	c	j	402.46	1	100	1000	0	0
037	1	6	?	N	d	769.24	NA	3	56	7	24	i	n	952.85	1	1000	1000	0	0
037	1	7	?	P	f	1183.72	NA	8	24	2	56	i	j	835.72	0	100	100	0	0
037	1	8	?	P	f	635.79	NA	3	56	8	24	i	j	819.44	1	1000	100	0	1
037	1	9	?	N	d	118.65	NA	7	56	4	24	c	j	1737.09	1	1000	100	0	0
037	1	10	?	P	f	1453.48	NA	3	56	7	24	i	j	952.71	1	100	1000	0	0
037	1	11	?	P	f	1185.73	NA	7	56	4	24	c	j	485.68	1	1000	1000	0	0
037	1	12	?	N	d	201.89	NA	2	56	8	24	i	j	751.55	0	1000	1000	0	0
037	1	13	?	N	d	1102.78	NA	4	56	8	24	i	n	801.31	1	100	1000	0	1
037	1	14	?	N	d	785.68	NA	7	24	2	56	i	j	1201.91	1	1000	100	0	0
037	1	15	?	P	f	2237.8	NA	7	56	4	24	c	j	485.98	1	1000	100	0	0
037	1	16	?	P	f	1085.6	NA	2	24	7	56	c	n	702.53	1	100	100	0	0
037	1	17	?	N	d	2337.62	NA	9	24	4	56	i	j	919.54	1	100	1000	0	0
037	1	18	?	N	d	1120.39	NA	2	56	8	24	i	n	885.42	1	100	100	0	0
037	1	19	?	P	f	68.57	NA	4	24	9	56	c	n	819.12	1	1000	1000	0	0
037	1	20	?	P	f	702.86	NA	2	24	9	56	c	n	535.79	1	1000	1000	0	0
037	1	21	?	N	d	985.34	NA	3	56	9	24	i	n	717.78	1	100	100	0	0
037	1	22	?	N	d	418.58	NA	4	56	7	24	i	n	1152.67	1	1000	1000	0	0
037	1	23	?	P	f	235.23	NA	8	24	3	56	i	n	885.01	1	1000	100	0	0
037	1	24	?	P	f	1069.49	NA	9	56	4	24	c	j	919.12	1	100	1000	0	0
037	1	25	?	P	f	18.29	NA	2	56	9	24	i	j	418.97	1	1000	1000	0	0
037	1	26	?	N	d	635.98	NA	8	56	4	24	c	j	936.0	1	100	100	0	0
037	1	27	?	N	d	1736.93	NA	9	24	2	56	i	j	668.62	1	100	100	0	0
037	1	28	?	P	f	669.89	NA	3	24	9	56	c	n	485.69	1	1000	100	0	0
037	1	29	?	P	f	135.23	NA	8	56	2	24	c	j	468.26	1	1000	100	0	0
037	1	30	?	P	f	1352.49	NA	9	24	3	56	i	n	1570.48	1	100	1000	0	0
037	1	31	?	N	d	703.2	NA	2	24	9	56	c	n	1119.69	1	100	1000	0	0
037	1	32	?	N	d	85.28	NA	4	24	7	56	c	n	452.07	1	1000	1000	0	0
037	1	33	?	P	f	1653.58	NA	2	24	7	56	c	n	1052.94	1	100	100	0	0
037	1	34	?	P	f	502.23	NA	8	56	4	24	c	j	685.88	1	1000	1000	0	0
037	1	35	?	N	d	1486.62	NA	7	24	2	56	i	j	585.88	1	100	100	0	0
037	1	36	?	P	f	17.17	NA	9	24	4	56	i	j	1870.41	0	1000	100	0	0
037	1	37	?	P	f	1453.08	NA	8	24	3	56	i	n	585.63	1	100	1000	0	1
037	1	38	?	P	f	1753.71	NA	2	24	7	56	c	n	552.37	1	100	100	0	0
037	1	39	?	P	f	1402.87	NA	4	24	8	56	c	n	451.51	1	100	1000	0	0
037	1	40	?	N	d	235.55	NA	3	24	7	56	c	n	1286.49	1	1000	1000	0	0
037	1	41	?	N	d	585.8	NA	7	24	4	56	i	j	569.08	1	1000	1000	0	0
037	1	42	?	P	f	1386.62	NA	8	24	3	56	i	j	585.97	0	100	100	0	0
037	1	43	?	P	f	486.02	NA	9	24	4	56	i	n	869.67	1	1000	100	0	1
037	1	44	?	P	f	1252.84	NA	8	56	3	24	c	j	1136.56	1	100	1000	0	0
037	1	45	?	P	f	1152.74	NA	2	56	9	24	i	n	885.69	0	100	1000	0	0
037	1	46	?	N	d	902.91	NA	8	24	4	56	i	j	1987.27	1	1000	100	0	1
037	1	47	?	N	d	517.99	NA	3	24	9	56	c	n	935.92	1	1000	100	0	0
037	1	48	?	P	f	586.2	NA	9	56	2	24	c	j	552.36	1	1000	1000	0	0
037	1	49	?	P	f	652.79	NA	4	56	8	24	i	j	635.73	1	1000	1000	0	0
037	1	50	?	N	d	1736.12	NA	7	24	2	56	i	j	1086.25	1	100	100	0	0
037	1	51	?	N	d	68.61	NA	3	24	9	56	c	n	635.97	1	1000	100	0	0
037	1	52	?	N	d	2120.85	NA	2	24	8	56	c	n	652.37	1	100	1000	0	0
037	1	53	?	P	f	702.53	NA	3	24	9	56	c	n	1102.91	1	100	100	0	0
037	1	54	?	P	f	536.01	NA	4	24	9	56	c	n	468.99	1	1000	100	0	0
037	1	55	?	P	f	1.71	NA	8	24	3	56	i	j	1520.21	0	1000	1000	0	0
037	1	56	?	P	f	752.74	NA	7	56	2	24	c	j	702.26	1	100	100	0	1
037	1	57	?	N	d	1487.14	NA	4	24	7	56	c	n	685.89	1	100	1000	0	0
037	1	58	?	P	f	2137.32	NA	3	56	9	24	i	j	1103.15	1	100	1000	0	0
037	1	59	?	P	f	585.83	NA	7	56	4	24	c	j	735.83	1	1000	100	0	0
037	1	60	?	P	f	1086.21	NA	8	24	2	56	i	n	669.15	1	100	1000	0	0
037	1	61	?	N	d	2437.77	NA	7	56	3	24	c	j	902.46	1	100	100	0	0
037	1	62	?	N	d	919.69	NA	7	24	2	56	i	j	585.74	1	1000	100	0	0
037	1	63	?	P	f	1236.59	NA	7	56	3	24	c	j	1452.16	1	100	100	0	0
037	1	64	?	P	f	1719.95	NA	9	24	2	56	i	n	1418.53	1	1000	100	0	0
037	1	65	?	P	f	17.45	NA	8	56	3	24	c	j	852.64	1	1000	1000	0	0
037	2	1	?	P	f	552.43	NA	8	56	4	24	c	j	752.86	1	100	100	-1	0
037	2	2	?	P	f	1.7	NA	7	24	2	56	i	n	1036.07	1	1000	1000	0	0
037	2	3	?	N	d	619.03	NA	4	56	8	24	i	n	736.02	1	100	100	0	0
037	2	4	?	N	d	635.89	NA	7	56	2	24	c	j	502.19	1	1000	1000	0	0
037	2	5	?	P	f	1019.55	NA	7	24	3	56	i	n	869.07	1	1000	100	0	0
037	2	6	?	P	f	68.29	NA	4	24	9	56	c	n	569.28	1	1000	1000	0	0
037	2	7	?	P	f	669.33	NA	8	56	3	24	c	j	635.79	1	1000	1000	0	0
037	2	8	?	P	f	1802.99	NA	7	56	2	24	c	j	468.12	1	1000	100	0	0
037	2	9	?	P	f	368.84	NA	7	56	3	24	c	j	502.42	1	1000	1000	0	0
037	2	10	?	N	d	285.48	NA	9	24	2	56	i	n	819.44	0	1000	1000	0	0
037	2	11	?	N	d	869.09	NA	9	24	3	56	i	j	468.85	1	100	1000	0	1
037	2	12	?	N	d	1320.03	NA	9	56	2	24	c	j	1253.06	1	100	100	0	0
037	2	13	?	N	d	1436.6	NA	4	56	7	24	i	n	586.07	1	100	1000	0	0
037	2	14	?	N	d	1620.35	NA	2	56	7	24	i	n	685.8	1	100	1000	0	0
037	2	15	?	N	d	418.48	NA	3	56	9	24	i	n	602.2	1	1000	1000	0	0
037	2	16	?	P	f	485.75	NA	9	56	4	24	c	j	569.2	1	1000	1000	0	0
037	2	17	?	P	f	1770.32	NA	2	56	9	24	i	j	1770.35	1	100	100	0	0
037	2	18	?	P	f	986.01	NA	4	56	8	24	i	j	485.5	1	100	1000	0	0
037	2	19	?	N	d	1169.69	NA	3	24	9	56	c	n	1787.17	1	100	1000	0	0
037	2	20	?	P	f	1002.66	NA	2	56	9	24	i	j	1036.28	1	100	100	0	0
037	2	21	?	P	f	452.48	NA	8	56	4	24	c	j	518.34	1	1000	100	0	0
037	2	22	?	N	d	1269.98	NA	8	56	3	24	c	j	768.99	1	100	100	0	0
037	2	23	?	N	d	802.66	NA	8	56	2	24	c	j	534.72	1	100	100	0	0
037	2	24	?	N	d	435.58	NA	3	24	7	56	c	n	1586.81	1	1000	100	0	0
037	2	25	?	P	f	485.85	NA	9	24	2	56	i	n	751.31	1	1000	1000	0	0
037	2	26	?	P	f	334.68	NA	3	56	8	24	i	j	1102.65	1	1000	100	0	0
037	2	27	?	N	d	2604.68	NA	9	56	4	24	c	j	502.16	1	100	1000	0	0
037	2	28	?	N	d	870.35	NA	3	56	8	24	i	n	651.98	1	100	100	0	0
037	2	29	?	N	d	619.71	NA	4	24	9	56	c	n	535.22	1	100	100	0	0
037	2	30	?	N	d	969.5	NA	7	56	3	24	c	j	534.81	1	100	1000	0	0
037	2	31	?	P	f	719.43	NA	4	24	8	56	c	n	884.6	1	100	100	0	0
037	2	32	?	P	f	352.1	NA	8	24	3	56	i	n	752.74	1	1000	1000	0	0
037	2	33	?	P	f	485.18	NA	8	24	2	56	i	n	652.57	1	1000	100	0	0
037	2	34	?	P	f	1002.55	NA	4	24	9	56	c	n	552.61	1	100	100	0	0
037	2	35	?	P	f	869.46	NA	2	56	8	24	i	j	519.37	1	100	100	0	0
037	2	36	?	N	d	318.7	NA	4	24	8	56	c	n	802.74	1	1000	1000	0	0
037	2	37	?	N	d	786.14	NA	2	56	7	24	i	j	636.17	0	100	100	0	0
037	2	38	?	N	d	936.11	NA	8	24	3	56	i	j	834.93	1	1000	1000	0	1
037	2	39	?	N	d	668.45	NA	2	56	8	24	i	n	1019.36	1	100	1000	0	0
037	2	40	?	N	d	118.47	NA	8	24	4	56	i	j	918.22	1	1000	100	0	0
037	2	41	?	N	d	569.16	NA	2	56	7	24	i	n	768.7	1	1000	100	0	0
037	2	42	?	P	f	1.69	NA	4	24	8	56	c	n	485.5	1	1000	1000	0	0
037	2	43	?	P	f	651.61	NA	2	56	8	24	i	n	818.0	0	100	1000	0	0
037	2	44	?	P	f	669.28	NA	4	24	8	56	c	n	936.21	1	100	100	0	1
037	2	45	?	P	f	685.86	NA	3	24	8	56	c	n	517.99	1	1000	100	0	0
037	2	46	?	P	f	268.67	NA	2	24	7	56	c	n	701.93	1	1000	1000	0	0
037	2	47	?	P	f	318.13	NA	3	24	8	56	c	n	734.51	1	1000	100	0	0
037	2	48	?	P	f	669.07	NA	2	56	7	24	i	j	819.04	1	1000	100	0	0
037	2	49	?	N	d	585.62	NA	8	24	3	56	i	j	819.04	1	1000	1000	0	0
037	2	50	?	N	d	786.12	NA	8	24	4	56	i	j	1002.92	1	1000	100	0	0
037	2	51	?	N	d	786.19	NA	3	56	8	24	i	n	902.73	1	100	100	0	0
037	2	52	?	N	d	2220.95	NA	4	24	8	56	c	n	585.65	1	100	1000	0	0
037	2	53	?	N	d	2237.94	NA	2	24	7	56	c	n	535.52	1	100	1000	0	0
037	2	54	?	N	d	1.69	NA	4	56	7	24	i	n	918.86	1	1000	100	0	0
037	2	55	?	N	d	1069.64	NA	9	56	2	24	c	j	952.32	1	1000	100	0	0
037	2	56	?	P	f	802.57	NA	7	56	3	24	c	j	702.55	1	100	1000	0	0
037	2	57	?	N	d	1368.5	NA	7	24	4	56	i	n	869.34	0	100	100	0	0
037	2	58	?	N	d	568.95	NA	3	56	8	24	i	n	1419.91	1	100	1000	0	1
037	2	59	?	N	d	1052.85	NA	2	24	7	56	c	n	718.33	1	1000	100	0	0
037	2	60	?	P	f	601.64	NA	9	56	4	24	c	j	568.95	1	100	100	0	0
037	2	61	?	N	d	586.13	NA	9	56	3	24	c	j	1202.78	1	100	1000	0	0
037	2	62	?	P	f	2370.48	NA	2	56	8	24	i	j	1720.15	1	1000	1000	0	0
037	2	63	?	N	d	1086.2	NA	8	24	3	56	i	j	1202.93	1	100	1000	0	0
037	2	64	?	N	d	2837.53	NA	2	24	9	56	c	n	802.65	1	100	1000	0	0
037	2	65	?	P	f	919.47	NA	9	56	3	24	c	j	618.87	1	1000	100	0	0
037	3	1	?	P	f	3721.18	NA	9	24	3	56	i	n	1853.7	1	100	1000	-1	0
037	3	2	?	P	f	1086.72	NA	2	24	7	56	c	n	452.06	1	1000	100	0	0
037	3	3	?	N	d	685.97	NA	4	56	9	24	i	n	786.26	1	100	1000	0	0
037	3	4	?	P	f	652.89	NA	3	24	9	56	c	n	552.66	1	1000	1000	0	0
037	3	5	?	N	d	2087.29	NA	2	56	7	24	i	n	1168.93	1	100	100	0	0
037	3	6	?	P	f	535.63	NA	7	24	4	56	i	n	1119.45	1	1000	100	0	0
037	3	7	?	N	d	769.17	NA	3	24	9	56	c	n	569.54	1	100	1000	0	0
037	3	8	?	P	f	1486.05	NA	4	24	7	56	c	n	1302.67	1	100	100	0	0
037	3	9	?	N	d	936.4	NA	2	56	7	24	i	n	1352.18	1	1000	100	0	0
037	3	10	?	P	f	335.45	NA	3	56	7	24	i	n	1236.54	0	1000	1000	0	0
037	3	11	?	P	f	1169.61	NA	4	56	9	24	i	j	2054.41	1	100	1000	0	1
037	3	12	?	P	f	669.2	NA	2	24	7	56	c	n	802.8	1	1000	1000	0	0
037	3	13	?	N	d	469.28	NA	3	56	7	24	i	n	1853.96	1	1000	1000	0	0
037	3	14	?	P	f	18.52	NA	2	56	7	24	i	j	569.43	1	1000	1000	0	0
037	3	15	?	N	d	819.53	NA	3	56	8	24	i	n	1136.21	1	1000	1000	0	0
037	3	16	?	P	f	502.19	NA	4	56	7	24	i	j	952.55	1	1000	1000	0	0
037	3	17	?	P	f	18.7	NA	7	56	3	24	c	j	519.19	1	1000	100	0	0
037	3	18	?	P	f	385.63	NA	9	56	2	24	c	j	552.23	1	1000	1000	0	0
037	3	19	?	P	f	1102.74	NA	9	56	4	24	c	j	502.35	1	100	1000	0	0
037	3	20	?	P	f	1419.2	NA	3	24	9	56	c	n	485.48	1	100	1000	0	0
037	3	21	?	N	d	1051.55	NA	7	56	4	24	c	j	1253.21	1	100	100	0	0
037	3	22	?	N	d	202.9	NA	8	24	2	56	i	n	919.2	0	1000	100	0	0
037	3	23	?	N	d	1386.6	NA	9	56	3	24	c	j	485.86	1	100	1000	0	1
037	3	24	?	N	d	885.74	NA	8	24	4	56	i	j	819.57	1	100	100	0	0
037	3	25	?	N	d	634.73	NA	2	56	9	24	i	n	685.67	1	100	1000	0	0
037	3	26	?	P	f	769.43	NA	7	56	3	24	c	j	569.18	1	1000	1000	0	0
037	3	27	?	P	f	301.65	NA	9	56	4	24	c	j	535.79	1	1000	1000	0	0
037	3	28	?	N	d	285.74	NA	7	24	2	56	i	j	617.99	1	1000	100	0	0
037	3	29	?	P	f	1502.48	NA	9	24	4	56	i	n	1069.67	1	100	100	0	0
037	3	30	?	N	d	118.67	NA	8	56	3	24	c	j	2270.84	1	1000	100	0	0
037	3	31	?	P	f	335.53	NA	9	56	2	24	c	j	485.56	1	1000	1000	0	0
037	3	32	?	P	f	3138.75	NA	9	56	3	24	c	j	485.17	1	100	100	0	0
037	3	33	?	P	f	1002.97	NA	2	56	8	24	i	j	1302.56	1	100	100	0	0
037	3	34	?	N	d	1085.98	NA	7	24	3	56	i	j	786.5	1	100	100	0	0
037	3	35	?	N	d	818.82	NA	2	24	7	56	c	n	986.26	1	1000	1000	0	0
037	3	36	?	P	f	1203.44	NA	4	56	8	24	i	n	535.59	0	100	1000	0	0
037	3	37	?	P	f	685.94	NA	2	56	7	24	i	j	519.16	1	1000	100	0	1
037	3	38	?	N	d	552.21	NA	3	24	9	56	c	n	602.19	1	1000	100	0	0
037	3	39	?	P	f	884.94	NA	8	24	4	56	i	n	851.36	1	100	100	0	0
037	3	40	?	N	d	18.2	NA	2	56	8	24	i	n	636.31	1	1000	100	0	0
037	3	41	?	P	f	569.27	NA	4	24	7	56	c	n	1353.68	1	100	100	0	0
037	3	42	?	N	d	584.94	NA	8	24	2	56	i	n	835.82	0	1000	1000	0	0
037	3	43	?	P	f	869.67	NA	9	24	4	56	i	n	617.95	1	1000	1000	0	1
037	3	44	?	N	d	451.88	NA	3	24	9	56	c	n	1169.63	1	100	1000	0	0
037	3	45	?	N	d	67.84	NA	9	56	2	24	c	j	1336.54	1	1000	100	0	0
037	3	46	?	N	d	818.74	NA	7	24	3	56	i	j	735.65	1	100	1000	0	0
037	3	47	?	P	f	451.91	NA	8	56	4	24	c	j	902.56	1	100	1000	0	0
037	3	48	?	P	f	1219.74	NA	3	24	7	56	c	n	434.56	1	100	100	0	0
037	3	49	?	P	f	1720.35	NA	2	56	9	24	i	j	735.84	1	100	100	0	0
037	3	50	?	P	f	552.59	NA	4	24	8	56	c	n	852.53	1	100	1000	0	0
037	3	51	?	N	d	536.04	NA	9	56	2	24	c	j	769.24	1	1000	100	0	0
037	3	52	?	N	d	685.71	NA	4	56	7	24	i	n	1502.24	1	100	100	0	0
037	3	53	?	N	d	502.36	NA	3	24	9	56	c	n	502.61	1	100	100	0	0
037	3	54	?	P	f	568.53	NA	2	24	8	56	c	n	485.55	1	1000	100	0	0
037	3	55	?	P	f	769.26	NA	8	56	4	24	c	j	652.64	1	100	100	0	0
037	3	56	?	N	d	551.97	NA	9	24	3	56	i	j	919.97	1	1000	100	0	0
037	3	57	?	N	d	1353.2	NA	9	24	2	56	i	j	752.93	1	100	1000	0	0
037	3	58	?	P	f	852.31	NA	4	24	9	56	c	n	802.48	1	1000	1000	0	0
037	3	59	?	P	f	868.24	NA	9	56	3	24	c	j	635.99	1	100	100	0	0
037	3	60	?	P	f	585.38	NA	8	24	4	56	i	n	1802.44	1	100	1000	0	0
037	3	61	?	P	f	118.91	NA	7	24	2	56	i	j	1870.43	0	1000	1000	0	0
037	3	62	?	P	f	935.85	NA	7	56	3	24	c	j	535.26	1	100	1000	0	1
037	3	63	?	P	f	349.79	NA	2	24	9	56	c	n	635.47	1	1000	100	0	0
037	3	64	?	P	f	1869.05	NA	9	24	3	56	i	n	902.93	1	100	1000	0	0
037	3	65	?	P	f	552.51	NA	8	24	4	56	i	n	702.4	1	1000	100	0	0
037	4	1	?	P	f	2270.55	NA	3	24	8	56	c	n	535.83	1	1000	100	-1	0
037	4	2	?	P	f	452.55	NA	4	24	7	56	c	n	452.23	1	1000	100	0	0
037	4	3	?	N	d	184.91	NA	8	24	3	56	i	j	1086.4	1	1000	100	0	0
037	4	4	?	N	d	1490.47	NA	8	56	2	24	c	j	535.86	1	100	1000	0	0
037	4	5	?	N	d	685.6	NA	8	24	4	56	i	j	802.25	1	1000	100	0	0
037	4	6	?	P	f	252.1	NA	2	24	8	56	c	n	519.44	1	1000	1000	0	0
037	4	7	?	P	f	268.63	NA	4	24	9	56	c	n	702.22	1	1000	100	0	0
037	4	8	?	N	d	118.24	NA	7	24	3	56	i	j	902.83	1	1000	1000	0	0
037	4	9	?	P	f	85.37	NA	2	56	7	24	i	n	735.98	0	1000	100	0	0
037	4	10	?	P	f	1052.36	NA	7	24	4	56	i	j	468.83	0	100	100	0	1
037	4	11	?	P	f	935.53	NA	8	24	2	56	i	n	1319.32	1	100	1000	0	1
037	4	12	?	P	f	1036.43	NA	9	56	4	24	c	j	652.52	1	100	1000	0	0
037	4	13	?	P	f	2104.11	NA	3	56	9	24	i	j	786.14	1	100	1000	0	0
037	4	14	?	P	f	486.02	NA	4	24	8	56	c	j	634.6	0	1000	100	0	0
037	4	15	?	P	f	152.06	NA	8	56	3	24	c	j	518.87	1	1000	100	0	1
037	4	16	?	P	f	1519.74	NA	2	56	9	24	i	j	886.27	1	100	100	0	0
037	4	17	?	P	f	1.97	NA	4	56	9	24	i	j	519.11	1	1000	100	0	0
037	4	18	?	N	d	452.45	NA	2	56	9	24	i	n	1236.54	1	1000	100	0	0
037	4	19	?	N	d	619.26	NA	8	56	3	24	c	j	602.13	1	1000	100	0	0
037	4	20	?	N	d	702.42	NA	9	24	2	56	i	n	652.41	0	1000	1000	0	0
037	4	21	?	P	f	1036.32	NA	8	24	4	56	i	n	669.05	1	100	1000	0	1
037	4	22	?	P	f	501.75	NA	3	24	8	56	c	n	518.1	1	1000	1000	0	0
037	4	23	?	P	f	585.68	NA	9	56	2	24	c	j	518.91	1	1000	1000	0	0
037	4	24	?	P	f	2187.7	NA	4	24	8	56	c	n	817.73	1	100	100	0	0
037	4	25	?	P	f	568.89	NA	7	24	3	56	i	n	669.09	1	1000	1000	0	0
037	4	26	?	N	d	769.4	NA	8	56	4	24	c	j	919.29	1	100	100	0	0
037	4	27	?	N	d	151.92	NA	3	56	8	24	i	n	802.19	1	1000	100	0	0
037	4	28	?	N	d	779.08	NA	8	24	2	56	i	j	918.65	1	100	100	0	0
037	4	29	?	N	d	269.14	NA	4	24	8	56	c	n	484.52	1	1000	100	0	0
037	4	30	?	P	f	885.52	NA	2	56	9	24	i	n	835.95	0	100	1000	0	0
037	4	31	?	P	f	1052.91	NA	3	24	7	56	c	n	552.18	1	100	100	0	1
037	4	32	?	P	f	635.74	NA	7	24	4	56	i	j	1201.6	0	1000	1000	0	0
037	4	33	?	P	f	535.69	NA	8	24	3	56	i	n	802.44	1	1000	1000	0	1
037	4	34	?	P	f	1370.01	NA	4	24	8	56	c	n	552.85	1	100	1000	0	0
037	4	35	?	P	f	986.23	NA	3	24	9	56	c	n	602.13	1	100	1000	0	0
037	4	36	?	P	f	319.82	NA	9	56	2	24	c	j	585.54	1	1000	100	0	0
037	4	37	?	P	f	285.6	NA	8	56	4	24	c	j	536.02	1	1000	1000	0	0
037	4	38	?	P	f	1603.58	NA	2	24	8	56	c	n	585.5	1	1000	1000	0	0
037	4	39	?	P	f	1203.13	NA	3	56	8	24	i	j	1069.76	1	100	1000	0	0
037	4	40	?	P	f	786.04	NA	4	24	9	56	c	n	435.61	1	100	100	0	0
037	4	41	?	P	f	101.99	NA	7	56	2	24	c	j	451.99	1	1000	100	0	0
037	4	42	?	P	f	552.53	NA	9	56	3	24	c	j	519.02	1	1000	1000	0	0
037	4	43	?	P	f	718.04	NA	4	56	7	24	i	j	619.1	1	1000	1000	0	0
037	4	44	?	N	d	268.74	NA	8	24	3	56	i	j	719.25	1	1000	1000	0	0
037	4	45	?	N	d	836.03	NA	8	56	4	24	c	j	484.96	1	100	1000	0	0
037	4	46	?	N	d	468.87	NA	7	56	2	24	c	j	502.23	1	100	100	0	0
037	4	47	?	N	d	534.9	NA	7	24	3	56	i	n	734.61	0	100	1000	0	0
037	4	48	?	N	d	1.68	NA	4	24	7	56	c	n	835.73	1	1000	1000	0	1
037	4	49	?	P	f	1020.51	NA	7	24	2	56	i	n	752.76	1	100	1000	0	0
037	4	50	?	P	f	1353.15	NA	9	24	3	56	i	j	669.23	0	100	100	0	0
037	4	51	?	P	f	969.57	NA	2	24	7	56	c	n	584.31	1	100	1000	0	1
037	4	52	?	P	f	1102.51	NA	7	56	4	24	c	j	618.82	1	100	100	0	0
037	4	53	?	P	f	1136.05	NA	2	24	9	56	c	n	551.61	1	100	1000	0	0
037	4	54	?	P	f	168.62	NA	7	24	3	56	i	n	1503.15	1	1000	100	0	0
037	4	55	?	N	d	785.63	NA	4	56	8	24	i	n	2554.47	1	100	100	0	0
037	4	56	?	N	d	652.2	NA	7	56	2	24	c	j	1887.41	1	100	100	0	0
037	4	57	?	N	d	702.42	NA	7	56	3	24	c	j	602.63	1	100	1000	0	0
037	4	58	?	N	d	635.31	NA	9	24	2	56	i	j	835.65	1	100	100	0	0
037	4	59	?	P	f	985.82	NA	8	24	3	56	i	n	452.15	1	100	100	0	0
037	4	60	?	P	f	335.69	NA	7	56	2	24	c	j	986.21	1	1000	1000	0	0
037	4	61	?	P	f	902.88	NA	8	24	4	56	i	n	1118.79	1	100	1000	0	0
037	4	62	?	P	f	652.55	NA	3	56	9	24	i	j	1086.16	1	100	100	0	0
037	4	63	?	N	d	268.02	NA	2	56	7	24	i	n	651.69	1	1000	100	0	0
037	4	64	?	N	d	635.77	NA	4	24	9	56	c	n	569.16	1	100	100	0	0
037	4	65	?	N	d	1.68	NA	2	56	7	24	i	n	918.98	1	1000	1000	0	0
037	5	1	?	P	f	685.98	NA	2	56	8	24	i	j	1869.41	1	100	100	-1	0
037	5	2	?	P	f	668.89	NA	8	24	3	56	i	n	652.4	1	1000	1000	0	0
037	5	3	?	N	d	468.98	NA	9	24	2	56	i	j	1737.04	1	1000	1000	0	0
037	5	4	?	N	d	752.29	NA	4	56	7	24	i	j	769.11	0	100	1000	0	0
037	5	5	?	N	d	2187.2	NA	9	56	2	24	c	j	618.32	1	100	1000	0	1
037	5	6	?	P	f	319.05	NA	9	24	3	56	i	n	467.7	1	1000	100	0	0
037	5	7	?	P	f	752.43	NA	8	56	4	24	c	j	502.77	1	100	100	0	0
037	5	8	?	P	f	651.91	NA	3	24	7	56	c	n	519.23	1	100	1000	0	0
037	5	9	?	N	d	101.89	NA	7	24	2	56	i	n	685.16	0	1000	1000	0	0
037	5	10	?	N	d	1687.5	NA	7	24	3	56	i	n	619.52	0	100	1000	0	1
037	5	11	?	N	d	502.47	NA	7	56	4	24	c	j	485.72	1	100	100	0	1
037	5	12	?	N	d	635.55	NA	2	24	9	56	c	n	1268.38	1	1000	1000	0	0
037	5	13	?	P	f	535.77	NA	3	56	9	24	i	n	802.73	0	1000	100	0	0
037	5	14	?	P	f	752.84	NA	2	24	7	56	c	n	652.6	1	100	1000	0	1
037	5	15	?	N	d	769.38	NA	8	56	3	24	c	j	752.82	1	100	100	0	0
037	5	16	?	P	f	903.21	NA	9	24	4	56	i	n	669.67	1	100	1000	0	0
037	5	17	?	N	d	1637.1	NA	8	56	3	24	c	j	836.01	1	1000	100	0	0
037	5	18	?	P	f	168.51	NA	7	56	2	24	c	j	1069.71	1	1000	1000	0	0
037	5	19	?	N	d	168.87	NA	7	56	4	24	c	j	1203.4	1	1000	1000	0	0
037	5	20	?	P	f	2070.99	NA	9	24	3	56	i	n	1269.03	1	100	100	0	0
037	5	21	?	P	f	1503.56	NA	4	56	8	24	i	j	552.19	1	100	1000	0	0
037	5	22	?	P	f	668.98	NA	2	24	9	56	c	n	501.55	1	100	1000	0	0
037	5	23	?	P	f	702.74	NA	4	24	7	56	c	n	735.87	1	100	1000	0	0
037	5	24	?	N	d	486.01	NA	8	24	3	56	i	j	568.91	1	100	1000	0	0
037	5	25	?	N	d	552.79	NA	2	24	8	56	c	n	485.55	1	1000	1000	0	0
037	5	26	?	P	f	184.02	NA	9	56	4	24	c	j	653.1	1	1000	100	0	0
037	5	27	?	P	f	302.32	NA	8	24	2	56	i	n	819.36	1	1000	1000	0	0
037	5	28	?	P	f	1219.75	NA	9	24	4	56	i	j	768.42	0	100	100	0	0
037	5	29	?	P	f	1486.92	NA	2	56	8	24	i	j	584.56	1	100	100	0	1
037	5	30	?	P	f	768.77	NA	8	24	4	56	i	n	619.5	1	100	100	0	0
037	5	31	?	P	f	168.73	NA	7	56	3	24	c	j	402.18	1	1000	1000	0	0
037	5	32	?	P	f	952.5	NA	8	56	4	24	c	j	567.46	1	100	100	0	0
037	5	33	?	P	f	302.19	NA	9	56	3	24	c	j	451.39	1	1000	100	0	0
037	5	34	?	N	d	402.24	NA	4	24	8	56	c	n	585.74	1	1000	100	0	0
037	5	35	?	N	d	485.2	NA	3	56	7	24	i	n	936.02	1	1000	100	0	0
037	5	36	?	N	d	352.48	NA	4	56	8	24	i	j	635.76	0	1000	1000	0	0
037	5	37	?	P	f	501.37	NA	3	24	7	56	c	n	619.3	1	100	100	0	1
037	5	38	?	P	f	85.31	NA	2	56	9	24	i	j	986.23	1	1000	100	0	0
037	5	39	?	P	f	102.36	NA	3	56	7	24	i	n	2654.55	0	1000	100	0	0
037	5	40	?	P	f	718.83	NA	2	56	9	24	i	j	485.67	1	100	100	0	1
037	5	41	?	P	f	418.78	NA	7	24	3	56	i	n	936.29	1	1000	100	0	0
037	5	42	?	N	d	485.72	NA	2	56	9	24	i	n	786.21	1	1000	1000	0	0
037	5	43	?	N	d	518.15	NA	4	24	9	56	c	n	585.71	1	1000	100	0	0
037	5	44	?	P	f	903.11	NA	2	24	7	56	c	n	802.41	1	1000	100	0	0
037	5	45	?	P	f	669.18	NA	7	24	4	56	i	n	619.04	1	1000	100	0	0
037	5	46	?	P	f	1.79	NA	8	56	3	24	c	j	618.82	1	1000	100	0	0
037	5	47	?	N	d	686.02	NA	2	24	7	56	c	n	652.16	1	100	100	0	0
037	5	48	?	N	d	519.14	NA	3	24	9	56	c	n	986.58	1	1000	100	0	0
037	5	49	?	N	d	368.58	NA	2	24	8	56	c	n	518.28	1	100	100	0	0
037	5	50	?	N	d	402.16	NA	7	24	3	56	i	j	1003.26	1	1000	100	0	0
037	5	51	?	P	f	684.82	NA	2	56	8	24	i	j	952.09	1	100	100	0	0
037	5	52	?	P	f	920.02	NA	7	24	4	56	i	n	736.34	1	100	1000	0	0
037	5	53	?	P	f	384.84	NA	9	56	2	24	c	j	535.81	1	1000	1000	0	0
037	5	54	?	P	f	568.77	NA	4	56	9	24	i	j	1002.78	1	1000	1000	0	0
037	5	55	?	P	f	1336.69	NA	9	24	2	56	i	n	402.17	1	100	1000	0	0
037	5	56	?	N	d	819.59	NA	9	24	3	56	i	n	684.34	0	100	1000	0	0
037	5	57	?	N	d	435.79	NA	2	24	9	56	c	n	785.69	1	1000	1000	0	1
037	5	58	?	N	d	669.09	NA	3	24	9	56	c	n	685.02	1	100	100	0	0
037	5	59	?	N	d	285.06	NA	2	24	8	56	c	n	919.82	1	1000	1000	0	0
037	5	60	?	N	d	869.37	NA	7	56	3	24	c	j	601.8	1	100	1000	0	0
037	5	61	?	N	d	368.87	NA	8	24	4	56	i	j	752.53	1	1000	1000	0	0
037	5	62	?	P	f	918.61	NA	8	56	3	24	c	j	368.87	1	100	1000	0	0
037	5	63	?	N	d	952.31	NA	9	56	4	24	c	j	935.76	1	100	1000	0	0
037	5	64	?	P	f	935.95	NA	3	56	9	24	i	j	1353.02	1	100	100	0	0
037	5	65	?	N	d	835.98	NA	2	56	7	24	i	n	669.55	1	100	100	0	0
037	6	1	?	P	f	1687.11	NA	3	24	9	56	c	n	468.91	1	100	1000	-1	0
037	6	2	?	N	d	452.05	NA	2	24	8	56	c	n	535.21	1	100	1000	0	0
037	6	3	?	P	f	452.71	NA	4	56	9	24	i	j	1202.77	1	1000	1000	0	0
037	6	4	?	P	f	401.79	NA	7	24	3	56	i	j	986.03	0	100	1000	0	0
037	6	5	?	P	f	502.25	NA	9	56	2	24	c	j	818.45	1	100	100	0	1
037	6	6	?	N	d	752.31	NA	7	24	3	56	i	j	3171.76	1	100	1000	0	0
037	6	7	?	N	d	1068.74	NA	2	24	7	56	c	n	651.65	1	100	100	0	0
037	6	8	?	N	d	635.84	NA	4	24	9	56	c	n	502.67	1	100	100	0	0
037	6	9	?	P	f	567.67	NA	8	56	3	24	c	j	718.76	1	100	100	0	0
037	6	10	?	P	f	419.07	NA	8	56	4	24	c	j	518.28	1	1000	100	0	0
037	6	11	?	N	d	536.33	NA	3	24	7	56	c	n	735.04	1	100	1000	0	0
037	6	12	?	P	f	569.02	NA	7	56	4	24	c	j	418.79	1	1000	1000	0	0
037	6	13	?	P	f	635.86	NA	8	24	2	56	i	n	886.31	1	100	1000	0	0
037	6	14	?	N	d	352.38	NA	4	56	8	24	i	n	1820.32	1	1000	1000	0	0
037	6	15	?	N	d	452.06	NA	2	24	9	56	c	n	518.95	1	1000	1000	0	0
037	6	16	?	P	f	535.59	NA	3	56	9	24	i	j	1103.16	1	100	100	0	0
037	6	17	?	N	d	602.21	NA	7	24	2	56	i	n	684.69	0	1000	100	0	0
037	6	18	?	N	d	785.86	NA	8	24	3	56	i	j	851.39	1	100	100	0	1
037	6	19	?	P	f	519.1	NA	2	56	7	24	i	j	1386.57	1	1000	100	0	0
037	6	20	?	P	f	434.31	NA	7	24	3	56	i	n	735.58	1	1000	1000	0	0
037	6	21	?	P	f	785.74	NA	7	24	4	56	i	n	1036.39	1	100	100	0	0
037	6	22	?	P	f	218.76	NA	2	56	8	24	i	j	652.18	1	1000	100	0	0
037	6	23	?	P	f	335.1	NA	4	24	9	56	c	n	517.07	1	1000	100	0	0
037	6	24	?	P	f	485.74	NA	2	56	7	24	i	j	735.88	1	1000	1000	0	0
037	6	25	?	P	f	419.11	NA	8	24	4	56	i	n	719.23	1	1000	1000	0	0
037	6	26	?	N	d	468.87	NA	8	56	2	24	c	j	1035.84	1	1000	100	0	0
037	6	27	?	P	f	769.49	NA	3	56	9	24	i	j	702.64	1	100	1000	0	0
037	6	28	?	N	d	419.12	NA	7	56	4	24	c	j	835.68	1	100	1000	0	0
037	6	29	?	P	f	352.15	NA	3	24	7	56	c	n	635.93	1	1000	1000	0	0
037	6	30	?	N	d	184.99	NA	4	56	9	24	i	n	1119.4	1	1000	100	0	0
037	6	31	?	N	d	785.93	NA	3	56	9	24	i	n	752.58	1	100	100	0	0
037	6	32	?	N	d	1669.88	NA	2	56	7	24	i	n	519.02	1	100	1000	0	0
037	6	33	?	P	f	685.96	NA	3	24	9	56	c	n	619.28	1	100	1000	0	0
037	6	34	?	P	f	601.96	NA	7	56	4	24	c	j	685.54	1	100	1000	0	0
037	6	35	?	N	d	518.58	NA	2	24	9	56	c	n	834.93	1	100	100	0	0
037	6	36	?	N	d	302.05	NA	4	24	7	56	c	n	519.46	1	1000	1000	0	0
037	6	37	?	P	f	352.0	NA	7	56	3	24	c	j	518.77	1	1000	100	0	0
037	6	38	?	P	f	735.04	NA	4	56	7	24	i	j	1385.95	1	100	100	0	0
037	6	39	?	N	d	502.23	NA	7	56	2	24	c	j	452.68	1	1000	1000	0	0
037	6	40	?	N	d	168.57	NA	9	24	3	56	i	j	402.07	1	1000	1000	0	0
037	6	41	?	N	d	769.59	NA	4	56	9	24	i	j	936.47	0	100	1000	0	0
037	6	42	?	N	d	585.79	NA	7	24	2	56	i	n	884.77	0	100	1000	0	1
037	6	43	?	N	d	586.02	NA	8	24	4	56	i	j	886.26	1	1000	1000	0	1
037	6	44	?	N	d	1269.64	NA	2	56	7	24	i	n	536.32	1	100	100	0	0
037	6	45	?	P	f	101.99	NA	7	56	3	24	c	j	469.16	1	1000	100	0	0
037	6	46	?	P	f	319.44	NA	2	24	9	56	c	n	586.2	1	1000	100	0	0
037	6	47	?	P	f	768.77	NA	4	56	7	24	i	n	969.55	0	100	100	0	0
037	6	48	?	P	f	552.3	NA	8	24	2	56	i	n	752.66	1	1000	100	0	1
037	6	49	?	P	f	1018.32	NA	7	56	4	24	c	j	534.77	1	100	100	0	0
037	6	50	?	N	d	335.33	NA	2	24	8	56	c	n	469.33	1	1000	1000	0	0
037	6	51	?	N	d	585.99	NA	3	56	7	24	i	n	1353.11	1	1000	100	0	0
037	6	52	?	N	d	1269.7	NA	8	24	4	56	i	n	452.29	0	1000	100	0	0
037	6	53	?	N	d	18.38	NA	2	24	8	56	c	n	551.25	1	1000	100	0	1
037	6	54	?	N	d	1436.6	NA	3	24	9	56	c	n	585.78	1	100	100	0	0
037	6	55	?	P	f	1169.92	NA	9	56	4	24	c	j	901.82	1	100	1000	0	0
037	6	56	?	P	f	118.41	NA	8	24	2	56	i	n	1953.94	1	1000	1000	0	0
037	6	57	?	P	f	852.98	NA	3	24	7	56	c	n	534.76	1	100	1000	0	0
037	6	58	?	P	f	335.61	NA	4	24	7	56	c	n	519.11	1	1000	100	0	0
037	6	59	?	P	f	836.02	NA	7	56	3	24	c	j	568.71	1	100	1000	0	0
037	6	60	?	P	f	219.0	NA	9	24	2	56	i	j	685.86	0	1000	100	0	0
037	6	61	?	P	f	418.97	NA	8	56	4	24	c	j	552.79	1	1000	1000	0	1
037	6	62	?	N	d	1034.97	NA	3	56	9	24	i	n	935.21	1	100	100	0	0
037	6	63	?	P	f	1052.98	NA	8	56	2	24	c	j	568.15	1	100	100	0	0
037	6	64	?	P	f	452.35	NA	8	56	3	24	c	j	351.94	1	1000	1000	0	0
037	6	65	?	P	f	418.96	NA	2	56	7	24	i	j	502.07	1	100	1000	0	0
