subj	block	trial	task_cue	task	choice_resp	choiceRT	choice_acc	topnum	topsize	botnum	botsize	cong	task_resp	taskRT	task_acc	RSI	CSI	altRep	E1
040	1	1	P	P	f	552.2	1	2	56	8	24	i	n	770.36	0	1000	1000	-1	0
040	1	2	P	P	f	1036.87	1	8	24	3	56	i	n	1154.28	1	100	1000	0	1
040	1	3	N	N	d	802.51	0	7	24	2	56	i	j	602.37	1	100	100	1	0
040	1	4	N	N	d	1320.52	0	7	24	4	56	i	j	1270.24	1	100	100	0	0
040	1	5	N	N	d	769.77	0	2	24	8	56	c	n	703.9	1	1000	100	0	0
040	1	6	P	P	f	836.4	1	4	24	9	56	c	n	653.17	1	100	1000	1	0
040	1	7	P	P	f	352.42	1	7	56	2	24	c	j	553.13	1	1000	100	0	0
040	1	8	P	P	f	635.68	1	7	56	4	24	c	j	503.44	1	100	1000	0	0
040	1	9	N	N	d	770.11	0	2	24	8	56	c	n	586.87	1	100	100	1	0
040	1	10	N	N	d	1136.58	0	8	24	4	56	i	j	687.14	1	1000	100	0	0
040	1	11	N	N	d	1003.41	0	2	56	8	24	i	n	552.73	1	1000	100	0	0
040	1	12	P	P	f	636.39	1	7	56	3	24	c	j	1037.53	1	1000	1000	1	0
040	1	13	P	P	f	386.32	1	2	56	8	24	i	j	469.37	1	1000	1000	0	0
040	1	14	N	N	d	869.57	0	4	56	9	24	i	n	1203.82	1	100	1000	1	0
040	1	15	P	P	f	618.3	1	3	24	7	56	c	n	970.97	1	100	100	1	0
040	1	16	N	N	d	486.15	0	4	56	8	24	i	n	803.35	1	1000	100	1	0
040	1	17	N	N	d	1020.14	0	9	56	2	24	c	j	1119.51	1	1000	100	0	0
040	1	18	P	P	f	552.95	1	3	24	9	56	c	n	853.05	1	1000	100	1	0
040	1	19	N	N	d	986.85	0	4	56	9	24	i	j	1304.49	0	1000	1000	1	0
040	1	20	P	P	f	903.84	1	2	56	7	24	i	n	1020.23	0	100	100	1	1
040	1	21	N	N	d	703.1	0	3	24	8	56	c	n	986.36	1	1000	1000	1	1
040	1	22	P	P	f	569.84	1	4	24	8	56	c	n	652.17	1	1000	1000	1	0
040	1	23	P	P	f	1370.45	1	2	56	8	24	i	j	719.71	1	100	100	0	0
040	1	24	N	N	d	702.79	0	8	24	3	56	i	j	871.04	1	1000	100	1	0
040	1	25	N	N	d	552.85	0	7	56	4	24	c	j	552.88	1	1000	1000	0	0
040	1	26	P	P	f	619.52	1	9	24	3	56	i	n	752.16	1	100	100	1	0
040	1	27	P	P	f	350.76	1	7	56	4	24	c	j	718.36	1	1000	1000	0	0
040	1	28	P	P	f	703.27	1	3	24	9	56	c	n	684.2	1	1000	100	0	0
040	1	29	N	N	d	669.79	0	7	24	2	56	i	j	1270.01	1	1000	1000	1	0
040	1	30	P	P	f	453.01	1	7	56	3	24	c	j	1003.88	1	1000	100	1	0
040	1	31	P	P	f	736.27	1	2	24	9	56	c	n	586.25	1	100	100	0	0
040	1	32	N	N	d	669.34	0	8	56	4	24	c	j	586.25	1	100	1000	1	0
040	1	33	N	N	f	535.86	0	3	24	9	56	c	n	870.99	1	1000	1000	0	0
040	1	34	P	P	f	802.75	1	9	24	2	56	i	n	920.47	1	1000	100	1	0
040	1	35	P	P	f	703.46	1	9	24	4	56	i	n	953.69	1	100	100	0	0
040	1	36	N	N	d	636.36	0	3	56	7	24	i	n	904.09	1	100	100	1	0
040	1	37	N	N	f	784.53	0	4	24	7	56	c	j	969.94	0	100	100	0	0
040	1	38	N	N	d	853.05	0	8	56	2	24	c	j	1087.37	1	100	100	0	1
040	1	39	N	N	d	568.16	0	7	24	3	56	i	j	587.11	1	1000	1000	0	0
040	1	40	N	N	d	518.97	0	2	56	7	24	i	n	619.76	1	1000	1000	0	0
040	1	41	P	P	f	636.54	1	8	56	4	24	c	j	803.85	1	100	100	1	0
040	1	42	P	P	f	453.09	1	2	56	8	24	i	j	619.02	1	1000	100	0	0
040	1	43	P	P	f	619.8	1	7	56	3	24	c	j	653.09	1	100	100	0	0
040	1	44	P	P	f	786.62	1	8	24	2	56	i	n	703.18	1	1000	1000	0	0
040	1	45	N	N	d	585.87	0	3	24	8	56	c	n	602.84	1	100	1000	1	0
040	1	46	P	P	f	436.29	1	4	56	7	24	i	n	720.48	0	1000	1000	1	0
040	1	47	P	P	f	986.81	1	3	24	7	56	c	n	584.62	1	100	1000	0	1
040	1	48	N	N	d	586.29	0	4	24	8	56	c	n	1570.83	1	1000	100	1	0
040	1	49	N	N	f	519.41	0	2	56	8	24	i	n	703.29	1	100	100	0	0
040	1	50	N	N	d	601.02	0	3	24	9	56	c	n	1620.45	1	100	1000	0	0
040	1	51	P	P	f	736.75	1	9	56	2	24	c	j	1153.26	1	100	1000	1	0
040	1	52	N	N	d	786.69	0	9	24	4	56	i	j	1137.46	1	100	1000	1	0
040	1	53	N	N	d	769.77	0	8	56	3	24	c	j	803.75	1	100	1000	0	0
040	1	54	P	P	f	636.77	1	7	24	4	56	i	n	1187.2	1	1000	1000	1	0
040	1	55	N	N	d	619.75	0	8	56	3	24	c	j	1236.9	1	1000	1000	1	0
040	1	56	N	N	d	686.46	0	9	24	2	56	i	j	869.42	1	100	1000	0	0
040	1	57	P	P	f	653.13	1	8	24	4	56	i	n	1386.92	1	100	1000	1	0
040	1	58	P	P	f	619.52	1	8	24	2	56	i	j	1137.16	0	1000	100	0	0
040	1	59	N	N	d	1153.69	0	9	56	3	24	c	j	1070.14	1	100	100	1	1
040	1	60	P	P	f	669.49	1	2	56	9	24	i	j	1270.59	1	100	1000	1	0
040	1	61	P	P	f	602.96	1	4	24	8	56	c	n	1020.81	1	1000	1000	0	0
040	1	62	N	N	d	636.98	0	9	56	2	24	c	j	1654.34	1	1000	100	1	0
040	1	63	N	N	d	919.8	0	4	56	7	24	i	n	1470.95	1	100	1000	0	0
040	1	64	P	P	f	686.26	1	2	56	8	24	i	j	936.47	1	1000	100	1	0
040	1	65	P	P	f	1804.44	1	4	56	7	24	i	j	1104.02	1	100	1000	0	0
040	2	1	N	N	d	770.12	0	7	56	2	24	c	j	1487.52	1	1000	100	-1	0
040	2	2	P	P	f	886.86	1	3	24	7	56	c	n	753.08	1	100	1000	1	0
040	2	3	N	N	d	652.31	0	7	24	2	56	i	j	719.83	1	1000	100	1	0
040	2	4	N	N	d	669.76	0	8	24	3	56	i	j	619.56	1	100	1000	0	0
040	2	5	P	P	f	969.73	1	2	56	7	24	i	n	584.76	0	100	1000	1	0
040	2	6	P	P	f	886.63	1	8	24	3	56	i	j	752.5	0	1000	100	0	1
040	2	7	P	P	f	669.98	1	2	56	8	24	i	n	586.09	0	1000	100	0	1
040	2	8	P	P	f	569.48	1	4	24	7	56	c	n	570.04	1	100	100	0	1
040	2	9	P	P	f	319.06	1	9	56	3	24	c	j	468.15	1	100	100	0	0
040	2	10	N	N	d	385.88	0	7	24	4	56	i	j	669.48	1	1000	1000	1	0
040	2	11	N	N	d	535.96	0	7	56	3	24	c	j	1269.72	1	100	100	0	0
040	2	12	P	P	f	402.94	1	2	24	7	56	c	n	569.46	1	1000	1000	1	0
040	2	13	P	P	f	536.2	1	9	24	4	56	i	j	870.09	0	1000	1000	0	0
040	2	14	P	P	f	936.96	1	3	56	7	24	i	n	636.04	0	100	1000	0	1
040	2	15	P	P	f	935.98	1	4	24	7	56	c	n	837.28	1	100	1000	0	1
040	2	16	P	P	f	419.54	1	3	56	8	24	i	n	603.55	0	1000	1000	0	0
040	2	17	P	P	f	603.17	1	9	56	2	24	c	j	552.11	1	1000	1000	0	1
040	2	18	P	P	f	486.62	1	8	24	3	56	i	n	1154.22	1	100	1000	0	0
040	2	19	P	P	f	502.89	1	2	56	8	24	i	j	453.15	1	100	100	0	0
040	2	20	N	N	f	303.05	0	3	24	9	56	c	j	1120.19	0	100	100	1	0
040	2	21	N	N	d	519.35	0	8	56	4	24	c	j	603.37	1	1000	1000	0	1
040	2	22	P	P	f	586.21	1	8	56	2	24	c	j	520.29	1	100	1000	1	0
040	2	23	P	P	f	1003.27	1	8	56	4	24	c	j	2321.78	1	100	1000	0	0
040	2	24	N	N	d	986.51	0	7	56	3	24	c	j	917.87	1	1000	100	1	0
040	2	25	P	P	f	703.22	1	2	24	9	56	c	n	569.56	1	1000	100	1	0
040	2	26	N	N	d	286.08	0	8	24	3	56	i	j	737.22	1	100	1000	1	0
040	2	27	N	N	d	836.82	0	2	56	9	24	i	n	586.16	1	100	100	0	0
040	2	28	N	N	d	585.5	0	8	56	4	24	c	j	601.4	1	100	1000	0	0
040	2	29	N	N	d	953.43	0	3	56	8	24	i	n	752.95	1	100	1000	0	0
040	2	30	P	P	f	669.66	1	9	56	4	24	c	j	769.94	1	1000	100	1	0
040	2	31	P	P	f	502.54	1	8	24	3	56	i	n	569.81	1	100	100	0	0
040	2	32	N	N	d	619.61	0	4	56	8	24	i	n	868.49	1	1000	1000	1	0
040	2	33	P	P	f	819.84	1	7	56	3	24	c	j	920.2	1	1000	1000	1	0
040	2	34	N	N	d	2505.46	0	7	24	4	56	i	j	1470.41	1	100	100	1	0
040	2	35	N	N	d	419.48	0	2	24	8	56	c	n	619.37	1	100	100	0	0
040	2	36	N	N	d	586.41	0	4	24	9	56	c	n	701.63	1	1000	100	0	0
040	2	37	P	P	f	720.06	1	8	24	3	56	i	n	986.46	1	1000	1000	1	0
040	2	38	P	P	f	652.92	1	8	56	2	24	c	j	970.12	1	1000	100	0	0
040	2	39	N	N	d	687.1	0	4	56	8	24	i	n	1103.71	1	100	100	1	0
040	2	40	P	P	f	536.02	1	7	24	2	56	i	n	1003.28	1	100	1000	1	0
040	2	41	P	P	f	719.64	1	4	24	9	56	c	n	921.0	1	1000	100	0	0
040	2	42	N	N	d	687.04	0	8	56	3	24	c	j	1003.31	1	1000	1000	1	0
040	2	43	N	N	d	652.94	0	2	56	8	24	i	n	920.71	1	1000	100	0	0
040	2	44	N	N	d	619.6	0	7	24	3	56	i	j	786.73	1	100	100	0	0
040	2	45	N	N	d	653.35	0	8	24	4	56	i	j	1087.37	1	1000	100	0	0
040	2	46	N	N	d	753.44	0	7	56	2	24	c	j	1054.1	1	1000	100	0	0
040	2	47	P	P	d	519.66	1	8	24	3	56	i	j	686.88	0	100	100	1	0
040	2	48	N	N	d	586.03	0	9	56	4	24	c	j	1254.16	1	100	1000	1	1
040	2	49	N	N	d	635.71	0	8	24	2	56	i	j	1254.51	1	1000	1000	0	0
040	2	50	P	P	f	569.94	1	8	24	4	56	i	n	1554.18	1	1000	100	1	0
040	2	51	P	P	f	300.53	1	3	24	9	56	c	n	470.39	1	1000	1000	0	0
040	2	52	N	N	d	886.89	0	2	56	7	24	i	n	986.62	1	100	1000	1	0
040	2	53	P	P	f	636.54	1	9	56	3	24	c	j	1004.18	1	100	100	1	0
040	2	54	N	N	d	536.55	0	2	56	8	24	i	n	736.45	1	1000	100	1	0
040	2	55	N	N	d	603.39	0	4	24	8	56	c	n	770.36	1	100	1000	0	0
040	2	56	N	N	d	970.17	0	3	24	9	56	c	n	820.79	1	1000	1000	0	0
040	2	57	P	P	d	569.66	1	4	56	9	24	i	n	903.19	0	1000	100	1	0
040	2	58	N	N	d	620.08	0	3	24	7	56	c	n	1020.07	1	100	1000	1	1
040	2	59	P	P	f	786.74	1	2	56	7	24	i	n	936.45	0	100	100	1	0
040	2	60	N	N	d	686.39	0	3	24	9	56	c	n	1053.66	1	1000	100	1	1
040	2	61	N	N	d	569.72	0	4	56	8	24	i	n	1988.55	1	1000	1000	0	0
040	2	62	P	P	f	836.73	1	3	24	7	56	c	n	1537.43	1	100	100	1	0
040	2	63	N	N	d	753.31	0	9	56	4	24	c	j	870.5	1	100	100	1	0
040	2	64	P	P	f	886.33	1	2	56	8	24	i	n	1220.8	0	1000	1000	1	0
040	2	65	N	N	d	703.16	0	3	24	9	56	c	n	602.65	1	1000	1000	1	1
040	3	1	P	P	f	2738.19	1	7	56	4	24	c	j	1554.39	1	100	100	-1	0
040	3	2	P	P	f	1203.39	1	2	24	8	56	c	n	620.08	1	100	100	0	0
040	3	3	N	N	d	686.31	0	3	56	8	24	i	n	703.42	1	100	1000	1	0
040	3	4	N	N	d	736.27	0	7	56	4	24	c	j	1254.47	1	1000	1000	0	0
040	3	5	P	P	f	569.61	1	3	24	8	56	c	n	619.43	1	1000	1000	1	0
040	3	6	N	N	d	619.15	0	7	24	2	56	i	j	820.38	1	1000	1000	1	0
040	3	7	N	N	d	902.44	0	3	56	7	24	i	n	650.92	1	100	100	0	0
040	3	8	P	P	f	686.55	1	7	56	2	24	c	j	969.91	1	1000	100	1	0
040	3	9	N	N	d	603.05	0	9	56	3	24	c	j	969.23	1	100	100	1	0
040	3	10	N	N	d	619.74	0	7	56	2	24	c	j	619.15	1	100	1000	0	0
040	3	11	P	P	f	636.78	1	4	24	7	56	c	n	586.81	1	100	100	1	0
040	3	12	N	N	d	620.77	0	7	56	2	24	c	j	753.47	1	1000	1000	1	0
040	3	13	P	P	d	569.6	1	7	56	4	24	c	j	803.64	1	1000	1000	1	0
040	3	14	P	P	f	469.58	1	9	56	2	24	c	j	920.52	1	1000	100	0	0
040	3	15	N	N	d	652.28	0	4	56	7	24	i	n	736.85	1	1000	100	1	0
040	3	16	N	N	d	653.24	0	2	24	8	56	c	n	602.98	1	1000	1000	0	0
040	3	17	N	N	d	469.58	0	4	56	8	24	i	n	886.88	1	100	1000	0	0
040	3	18	N	N	d	619.69	0	9	56	2	24	c	j	634.37	1	100	100	0	0
040	3	19	P	P	f	886.82	1	8	56	3	24	c	j	636.42	1	100	1000	1	0
040	3	20	P	P	f	535.77	1	4	56	7	24	i	j	485.49	1	1000	100	0	0
040	3	21	N	N	d	835.94	0	7	56	3	24	c	j	752.43	1	100	1000	1	0
040	3	22	N	N	d	767.96	0	4	24	8	56	c	n	553.25	1	1000	100	0	0
040	3	23	P	P	f	669.71	1	8	24	3	56	i	n	469.66	1	100	1000	1	0
040	3	24	P	P	f	770.44	1	9	24	2	56	i	n	486.73	1	100	1000	0	0
040	3	25	N	N	d	753.32	0	3	24	8	56	c	n	887.09	1	100	100	1	0
040	3	26	N	N	d	853.97	0	8	24	2	56	i	j	903.48	1	1000	1000	0	0
040	3	27	N	N	d	653.35	0	8	24	4	56	i	j	803.25	1	100	1000	0	0
040	3	28	N	N	d	752.9	0	9	56	2	24	c	j	853.15	1	1000	100	0	0
040	3	29	P	P	f	820.12	1	8	56	4	24	c	j	1254.19	1	100	100	1	0
040	3	30	N	N	d	936.35	0	2	24	9	56	c	n	569.59	1	1000	100	1	0
040	3	31	N	N	d	803.9	0	4	56	7	24	i	n	1136.96	1	1000	1000	0	0
040	3	32	N	N	d	552.98	0	8	24	3	56	i	j	703.16	1	100	100	0	0
040	3	33	P	P	f	669.47	1	4	24	9	56	c	n	1504.27	1	1000	100	1	0
040	3	34	P	P	f	703.18	1	9	24	2	56	i	n	869.4	1	1000	100	0	0
040	3	35	P	P	f	402.91	1	8	24	4	56	i	n	686.38	1	1000	1000	0	0
040	3	36	N	N	d	386.11	0	2	56	8	24	i	n	1421.17	1	1000	1000	1	0
040	3	37	P	P	f	919.61	1	3	56	8	24	i	j	886.53	1	1000	100	1	0
040	3	38	N	N	d	636.26	0	9	24	4	56	i	j	867.72	1	100	100	1	0
040	3	39	P	P	f	1971.04	1	8	24	3	56	i	n	1587.78	1	1000	1000	1	0
040	3	40	P	P	f	600.93	1	4	24	8	56	c	n	1303.8	1	1000	100	0	0
040	3	41	N	N	d	720.15	0	9	24	2	56	i	j	770.43	1	100	1000	1	0
040	3	42	P	P	f	802.82	1	4	56	9	24	i	n	669.9	0	1000	1000	1	0
040	3	43	N	N	d	585.91	0	9	56	2	24	c	j	1404.45	1	1000	100	1	1
040	3	44	N	N	d	769.46	0	3	56	9	24	i	n	1270.72	1	1000	100	0	0
040	3	45	P	P	f	452.81	1	8	24	2	56	i	n	1020.69	1	100	100	1	0
040	3	46	N	N	d	636.01	0	3	24	8	56	c	n	1187.26	1	100	1000	1	0
040	3	47	N	N	d	803.14	0	4	24	9	56	c	n	636.84	1	100	100	0	0
040	3	48	N	N	d	653.16	0	9	24	3	56	i	j	1020.24	1	1000	100	0	0
040	3	49	P	P	d	753.25	1	4	56	9	24	i	n	802.73	0	100	1000	1	0
040	3	50	P	P	f	736.33	1	3	24	8	56	c	n	553.47	1	1000	1000	0	1
040	3	51	N	N	d	686.17	0	7	24	2	56	i	j	602.64	1	1000	100	1	0
040	3	52	P	P	f	702.87	1	3	24	8	56	c	n	819.91	1	100	1000	1	0
040	3	53	P	P	f	903.41	1	2	56	9	24	i	n	770.33	0	100	100	0	0
040	3	54	P	P	f	734.51	1	7	56	4	24	c	j	700.89	1	100	1000	0	1
040	3	55	P	P	f	602.66	1	2	56	9	24	i	n	601.23	0	100	1000	0	0
040	3	56	N	N	d	869.52	0	4	24	7	56	c	n	887.01	1	1000	1000	1	1
040	3	57	P	P	f	936.75	1	8	24	2	56	i	j	719.54	0	1000	100	1	0
040	3	58	P	P	f	1687.32	1	3	56	8	24	i	n	737.37	0	1000	1000	0	1
040	3	59	P	P	f	2672.19	1	7	56	2	24	c	j	686.44	1	100	100	0	1
040	3	60	P	P	f	835.95	1	8	24	3	56	i	n	736.63	1	100	100	0	0
040	3	61	P	P	f	653.17	1	7	56	4	24	c	j	851.51	1	1000	1000	0	0
040	3	62	N	N	d	1068.13	0	3	56	9	24	i	n	853.87	1	100	100	1	0
040	3	63	N	N	d	419.27	0	4	24	7	56	c	n	519.55	1	100	1000	0	0
040	3	64	P	P	f	903.65	1	2	56	7	24	i	n	937.41	0	100	100	1	0
040	3	65	P	P	f	936.59	1	4	24	8	56	c	n	586.76	1	100	1000	0	1
040	4	1	N	N	d	1153.7	0	9	56	3	24	c	j	736.4	1	100	1000	-1	0
040	4	2	P	P	f	670.03	1	7	56	4	24	c	j	1187.07	1	1000	1000	1	0
040	4	3	N	N	d	503.48	0	2	24	8	56	c	n	720.52	1	100	1000	1	0
040	4	4	P	P	f	737.05	1	4	24	9	56	c	n	753.73	1	1000	100	1	0
040	4	5	N	N	d	619.88	0	7	24	3	56	i	j	802.93	1	1000	1000	1	0
040	4	6	P	P	f	836.2	1	2	56	8	24	i	j	1187.53	1	100	100	1	0
040	4	7	P	P	d	352.46	1	3	24	8	56	c	n	1169.17	1	100	100	0	0
040	4	8	N	N	d	636.69	0	8	24	2	56	i	j	1336.76	1	100	100	1	0
040	4	9	P	P	f	753.35	1	9	56	3	24	c	j	1220.59	1	100	1000	1	0
040	4	10	P	P	f	652.88	1	4	56	9	24	i	j	870.63	1	100	100	0	0
040	4	11	P	P	f	536.02	1	7	24	3	56	i	n	820.58	1	1000	1000	0	0
040	4	12	P	P	f	535.48	1	4	24	9	56	c	n	569.55	1	100	1000	0	0
040	4	13	N	N	f	319.41	0	3	56	8	24	i	j	169.33	0	1000	1000	1	0
040	4	14	N	N	d	836.4	0	9	24	4	56	i	j	1204.28	1	100	1000	0	1
040	4	15	N	N	d	386.23	0	8	56	2	24	c	j	1038.02	1	100	1000	0	0
040	4	16	N	N	d	853.58	0	4	56	8	24	i	n	737.23	1	100	1000	0	0
040	4	17	P	P	f	352.86	1	3	56	8	24	i	j	1020.55	1	1000	1000	1	0
040	4	18	P	P	f	786.44	1	4	56	8	24	i	j	600.91	1	1000	1000	0	0
040	4	19	N	N	d	519.77	0	2	24	8	56	c	n	1604.46	1	1000	100	1	0
040	4	20	P	P	f	636.74	1	4	24	8	56	c	n	920.57	1	100	1000	1	0
040	4	21	P	P	f	769.83	1	9	56	2	24	c	j	769.86	1	1000	100	0	0
040	4	22	P	P	f	436.04	1	4	56	7	24	i	j	988.09	1	1000	100	0	0
040	4	23	N	N	f	352.93	0	9	24	3	56	i	j	737.89	1	1000	100	1	0
040	4	24	N	N	d	319.26	0	9	24	4	56	i	j	1320.81	1	1000	100	0	0
040	4	25	P	P	f	519.59	1	3	24	8	56	c	n	687.08	1	100	100	1	0
040	4	26	N	N	d	602.69	0	4	24	8	56	c	n	1187.35	1	100	100	1	0
040	4	27	N	N	d	803.97	0	8	56	3	24	c	j	619.61	1	100	100	0	0
040	4	28	N	N	d	452.99	0	4	56	7	24	i	j	1571.36	0	100	100	0	0
040	4	29	P	P	f	636.83	1	2	56	7	24	i	j	1704.45	1	1000	100	1	1
040	4	30	N	N	d	953.38	0	4	56	7	24	i	n	1904.37	1	1000	100	1	0
040	4	31	P	P	f	586.44	1	8	24	2	56	i	n	1287.02	1	1000	1000	1	0
040	4	32	N	N	d	702.5	0	3	56	9	24	i	n	1104.14	1	100	1000	1	0
040	4	33	P	P	f	519.5	1	2	56	9	24	i	j	1687.85	1	100	1000	1	0
040	4	34	P	P	f	586.72	1	9	24	4	56	i	n	786.53	1	100	100	0	0
040	4	35	P	P	f	569.71	1	7	56	3	24	c	j	786.33	1	100	1000	0	0
040	4	36	P	P	f	553.0	1	4	24	7	56	c	n	585.47	1	1000	100	0	0
040	4	37	P	P	f	569.35	1	2	56	7	24	i	j	520.02	1	100	1000	0	0
040	4	38	N	N	d	1070.09	0	9	56	4	24	c	j	970.33	1	1000	100	1	0
040	4	39	N	N	d	552.23	0	9	24	3	56	i	j	886.8	1	100	100	0	0
040	4	40	P	P	f	603.91	1	8	56	4	24	c	j	753.04	1	1000	100	1	0
040	4	41	N	N	d	1086.89	0	9	56	2	24	c	j	836.63	1	100	1000	1	0
040	4	42	N	N	d	685.85	0	3	24	9	56	c	n	1120.18	1	100	1000	0	0
040	4	43	P	P	d	319.39	1	4	24	7	56	c	j	19.47	0	1000	1000	1	0
040	4	44	P	P	f	586.65	1	7	24	3	56	i	n	1120.22	1	100	1000	0	1
040	4	45	P	P	f	452.56	1	7	56	4	24	c	j	836.76	1	1000	1000	0	0
040	4	46	P	P	f	635.88	1	9	24	2	56	i	n	603.24	1	1000	100	0	0
040	4	47	P	P	f	585.54	1	8	56	4	24	c	j	553.13	1	100	100	0	0
040	4	48	N	N	d	436.38	0	3	24	8	56	c	n	519.49	1	1000	1000	1	0
040	4	49	N	N	d	1187.06	0	2	24	9	56	c	n	702.9	1	1000	1000	0	0
040	4	50	N	N	d	453.06	0	4	24	8	56	c	n	586.59	1	1000	100	0	0
040	4	51	P	P	d	385.63	1	8	56	3	24	c	j	586.26	1	100	100	1	0
040	4	52	N	N	d	669.9	0	4	56	9	24	i	n	1036.88	1	100	100	1	0
040	4	53	N	N	d	519.55	0	8	56	2	24	c	j	1186.93	1	1000	1000	0	0
040	4	54	N	N	d	819.3	0	3	56	7	24	i	n	1421.06	1	1000	100	0	0
040	4	55	N	N	d	519.15	0	4	56	9	24	i	n	1403.9	1	1000	1000	0	0
040	4	56	P	P	f	684.65	1	8	24	2	56	i	j	703.42	0	1000	100	1	0
040	4	57	N	N	d	569.65	0	9	56	4	24	c	j	1186.5	1	1000	1000	1	1
040	4	58	N	N	d	669.84	0	9	56	3	24	c	j	853.98	1	1000	100	0	0
040	4	59	P	P	f	1053.78	1	8	24	2	56	i	n	1135.0	1	100	100	1	0
040	4	60	P	P	f	686.7	1	4	24	7	56	c	n	869.61	1	1000	1000	0	0
040	4	61	N	N	d	870.02	0	8	24	2	56	i	j	836.33	1	100	1000	1	0
040	4	62	N	N	d	486.15	0	3	24	8	56	c	n	636.14	1	100	100	0	0
040	4	63	P	P	f	569.05	1	7	24	2	56	i	j	836.55	0	100	1000	1	0
040	4	64	N	N	d	686.06	0	9	56	3	24	c	j	1153.26	1	100	100	1	1
040	4	65	N	N	d	703.27	0	7	24	4	56	i	j	1554.92	1	1000	1000	0	0
040	5	1	P	P	f	1203.56	1	4	24	9	56	c	n	2422.27	1	1000	1000	-1	0
040	5	2	P	P	f	619.36	1	3	24	8	56	c	n	569.54	1	100	100	0	0
040	5	3	N	N	d	635.89	0	8	24	2	56	i	j	570.6	1	100	1000	1	0
040	5	4	P	P	f	619.74	1	9	56	4	24	c	j	1184.37	1	1000	100	1	0
040	5	5	N	N	d	736.47	0	2	24	7	56	c	n	1604.65	1	100	1000	1	0
040	5	6	P	P	f	486.37	1	9	24	4	56	i	n	736.23	1	100	100	1	0
040	5	7	N	N	d	636.39	0	3	24	8	56	c	n	703.21	1	100	100	1	0
040	5	8	N	N	d	536.13	0	8	56	2	24	c	j	803.48	1	1000	1000	0	0
040	5	9	N	N	f	869.66	0	7	56	3	24	c	j	1186.8	1	1000	100	0	0
040	5	10	N	N	d	752.44	0	4	56	7	24	i	n	670.28	1	100	1000	0	0
040	5	11	P	P	f	603.63	1	3	56	8	24	i	j	936.71	1	1000	100	1	0
040	5	12	P	P	f	386.06	1	9	24	2	56	i	n	835.75	1	1000	1000	0	0
040	5	13	P	P	f	653.06	1	4	24	7	56	c	n	453.25	1	1000	1000	0	0
040	5	14	P	P	f	519.54	1	2	24	7	56	c	n	453.27	1	100	1000	0	0
040	5	15	N	N	d	836.38	0	8	24	4	56	i	j	1253.21	1	1000	100	1	0
040	5	16	P	P	f	469.73	1	2	56	9	24	i	j	503.25	1	1000	1000	1	0
040	5	17	N	N	d	786.59	0	8	56	3	24	c	j	719.96	1	1000	1000	1	0
040	5	18	P	P	f	519.04	1	4	24	7	56	c	n	669.71	1	1000	100	1	0
040	5	19	N	N	d	486.62	0	9	56	3	24	c	j	1070.65	1	100	1000	1	0
040	5	20	N	N	d	700.99	0	2	24	8	56	c	n	536.37	1	1000	1000	0	0
040	5	21	P	P	f	502.83	1	9	24	3	56	i	n	469.73	1	100	1000	1	0
040	5	22	P	P	f	736.4	1	9	56	2	24	c	j	453.44	1	100	100	0	0
040	5	23	P	P	f	601.14	1	8	24	3	56	i	n	503.15	1	100	100	0	0
040	5	24	P	P	f	535.53	1	2	56	9	24	i	j	519.28	1	1000	100	0	0
040	5	25	P	P	f	352.76	1	9	24	3	56	i	n	386.31	1	100	1000	0	0
040	5	26	N	N	d	669.68	0	2	56	8	24	i	n	1037.67	1	100	1000	1	0
040	5	27	N	N	d	685.78	0	8	24	4	56	i	j	1203.63	1	1000	1000	0	0
040	5	28	N	N	d	686.31	0	3	24	9	56	c	n	586.83	1	100	1000	0	0
040	5	29	P	P	f	669.88	1	8	56	2	24	c	j	602.83	1	100	1000	1	0
040	5	30	P	P	f	1053.07	1	8	56	3	24	c	j	1170.4	1	100	1000	0	0
040	5	31	P	P	f	636.24	1	4	56	9	24	i	n	653.64	0	100	1000	0	0
040	5	32	N	N	d	684.35	0	2	24	8	56	c	n	770.02	1	1000	100	1	1
040	5	33	N	N	d	453.1	0	4	24	8	56	c	n	619.79	1	1000	100	0	0
040	5	34	N	N	d	319.23	0	2	56	8	24	i	n	503.49	1	1000	1000	0	0
040	5	35	N	N	d	703.06	0	9	24	3	56	i	j	753.22	1	100	1000	0	0
040	5	36	P	P	d	469.01	1	4	24	9	56	c	n	200.37	1	1000	1000	1	0
040	5	37	P	P	f	586.05	1	2	24	9	56	c	n	584.43	1	1000	100	0	0
040	5	38	P	P	f	586.71	1	4	56	8	24	i	n	769.69	0	100	100	0	0
040	5	39	N	N	d	436.27	0	9	24	3	56	i	j	687.8	1	1000	1000	1	1
040	5	40	N	N	f	837.08	0	9	56	4	24	c	j	784.7	1	100	100	0	0
040	5	41	P	P	f	684.58	1	3	24	8	56	c	n	620.44	1	100	100	1	0
040	5	42	N	N	d	803.35	0	2	56	9	24	i	n	953.85	1	100	100	1	0
040	5	43	N	N	d	1069.86	0	4	56	8	24	i	n	1120.07	1	100	100	0	0
040	5	44	P	P	f	719.46	1	9	24	3	56	i	n	535.78	1	1000	1000	1	0
040	5	45	P	P	f	786.9	1	7	56	4	24	c	j	869.97	1	1000	1000	0	0
040	5	46	P	P	f	452.46	1	8	56	3	24	c	j	787.2	1	1000	100	0	0
040	5	47	N	N	d	703.5	0	8	56	4	24	c	j	1153.58	1	1000	100	1	0
040	5	48	P	P	f	702.72	1	3	24	9	56	c	n	619.67	1	100	1000	1	0
040	5	49	P	P	f	569.65	1	2	56	9	24	i	j	1003.68	1	1000	1000	0	0
040	5	50	N	N	d	586.33	0	3	56	8	24	i	n	1437.29	1	1000	1000	1	0
040	5	51	N	N	d	752.39	0	9	56	2	24	c	j	1203.66	1	100	1000	0	0
040	5	52	N	N	d	669.95	0	7	24	4	56	i	j	884.45	1	1000	100	0	0
040	5	53	P	P	d	668.11	1	9	56	2	24	c	n	636.88	0	100	100	1	0
040	5	54	N	N	d	1120.56	0	4	24	7	56	c	n	1271.08	1	1000	1000	1	1
040	5	55	N	N	d	319.19	0	8	24	2	56	i	j	736.88	1	100	100	0	0
040	5	56	N	N	d	402.74	0	3	24	9	56	c	n	618.8	1	100	100	0	0
040	5	57	P	P	f	519.59	1	8	56	2	24	c	j	603.94	1	1000	1000	1	0
040	5	58	P	P	f	369.49	1	8	24	3	56	i	n	853.44	1	1000	100	0	0
040	5	59	N	N	d	770.03	0	4	56	8	24	i	n	603.28	1	1000	100	1	0
040	5	60	P	P	f	1187.16	1	9	24	2	56	i	n	1453.15	1	1000	100	1	0
040	5	61	N	N	d	536.44	0	8	56	4	24	c	j	518.77	1	100	100	1	0
040	5	62	N	N	d	636.42	0	3	56	7	24	i	n	1170.89	1	1000	100	0	0
040	5	63	P	P	f	870.08	1	2	56	9	24	i	j	1153.53	1	100	1000	1	0
040	5	64	N	N	d	586.07	0	9	24	4	56	i	j	1020.07	1	100	100	1	0
040	5	65	P	P	f	553.04	1	2	56	9	24	i	n	987.03	0	100	100	1	0
040	6	1	P	P	f	753.13	1	8	56	3	24	c	j	1053.4	1	1000	100	-1	0
040	6	2	N	N	d	603.12	0	9	56	4	24	c	j	1120.64	1	1000	100	1	0
040	6	3	P	P	f	636.82	1	2	24	9	56	c	n	1104.05	1	1000	1000	1	0
040	6	4	N	N	d	568.96	0	8	24	4	56	i	j	769.78	1	1000	100	1	0
040	6	5	P	P	f	586.41	1	9	24	3	56	i	n	1170.97	1	100	100	1	0
040	6	6	N	N	d	503.12	0	7	56	4	24	c	j	670.51	1	100	100	1	0
040	6	7	N	N	d	652.52	0	9	24	2	56	i	j	870.07	1	1000	100	0	0
040	6	8	N	N	d	519.24	0	4	56	8	24	i	n	587.1	1	1000	1000	0	0
040	6	9	N	N	d	686.06	0	9	24	2	56	i	j	1303.14	1	1000	1000	0	0
040	6	10	N	N	d	636.49	0	7	56	3	24	c	j	670.2	1	1000	100	0	0
040	6	11	N	N	d	602.92	0	2	24	9	56	c	n	753.95	1	1000	100	0	0
040	6	12	P	P	f	534.5	1	7	24	4	56	i	n	736.88	1	1000	1000	1	0
040	6	13	P	P	f	1253.08	1	8	56	3	24	c	j	419.82	1	100	1000	0	0
040	6	14	P	P	f	402.1	1	7	56	4	24	c	j	787.32	1	1000	100	0	0
040	6	15	N	N	d	1020.41	0	2	24	9	56	c	n	968.03	1	100	100	1	0
040	6	16	P	P	f	886.55	1	8	56	4	24	c	j	553.01	1	100	100	1	0
040	6	17	P	P	f	653.03	1	8	24	3	56	i	n	336.32	1	100	1000	0	0
040	6	18	P	P	f	753.26	1	9	24	2	56	i	n	569.97	1	100	100	0	0
040	6	19	N	N	d	769.7	0	9	24	3	56	i	j	686.37	1	100	1000	1	0
040	6	20	P	P	f	520.04	1	2	56	9	24	i	j	636.89	1	1000	100	1	0
040	6	21	N	N	d	569.72	0	4	56	7	24	i	n	820.48	1	100	100	1	0
040	6	22	N	N	d	569.12	0	9	24	2	56	i	j	669.17	1	100	100	0	0
040	6	23	N	N	d	670.11	0	4	56	7	24	i	n	569.37	1	100	100	0	0
040	6	24	N	N	d	601.19	0	9	56	3	24	c	j	586.71	1	100	100	0	0
040	6	25	P	P	f	685.98	1	8	56	4	24	c	j	470.04	1	1000	1000	1	0
040	6	26	N	N	f	603.11	0	3	24	7	56	c	n	1487.24	1	100	1000	1	0
040	6	27	N	N	d	1036.93	0	4	24	8	56	c	n	803.13	1	100	100	0	0
040	6	28	N	N	d	553.01	0	3	24	9	56	c	n	736.88	1	1000	1000	0	0
040	6	29	N	N	d	602.97	0	7	56	4	24	c	j	886.71	1	1000	1000	0	0
040	6	30	N	N	d	736.55	0	3	56	8	24	i	n	669.51	1	100	1000	0	0
040	6	31	P	P	f	736.43	1	2	56	8	24	i	j	1437.32	1	1000	1000	1	0
040	6	32	P	P	f	636.44	1	3	24	8	56	c	n	535.87	1	100	100	0	0
040	6	33	P	P	f	753.13	1	9	24	4	56	i	n	803.03	1	1000	100	0	0
040	6	34	P	P	f	550.98	1	3	56	7	24	i	j	486.78	1	100	100	0	0
040	6	35	P	P	f	920.06	1	4	24	9	56	c	n	536.44	1	1000	100	0	0
040	6	36	P	P	f	451.0	1	2	56	7	24	i	j	787.23	1	1000	1000	0	0
040	6	37	N	N	d	902.98	0	7	24	4	56	i	j	768.98	1	100	100	1	0
040	6	38	N	N	d	385.98	0	2	24	8	56	c	n	436.56	1	100	1000	0	0
040	6	39	P	P	f	536.29	1	4	24	7	56	c	n	653.67	1	1000	100	1	0
040	6	40	N	N	d	519.47	0	8	24	3	56	i	j	853.85	1	1000	1000	1	0
040	6	41	P	P	f	536.24	1	4	56	9	24	i	j	1086.56	1	100	100	1	0
040	6	42	N	N	d	802.69	0	3	56	7	24	i	n	2304.84	1	1000	100	1	0
040	6	43	P	P	f	536.13	1	9	56	4	24	c	j	835.86	1	100	1000	1	0
040	6	44	P	P	f	669.67	1	3	24	9	56	c	n	1019.93	1	1000	1000	0	0
040	6	45	P	P	f	651.04	1	4	56	8	24	i	j	653.37	1	1000	100	0	0
040	6	46	P	P	f	369.28	1	7	24	2	56	i	n	419.39	1	1000	1000	0	0
040	6	47	N	N	d	603.24	0	4	56	9	24	i	n	620.18	1	100	1000	1	0
040	6	48	P	P	f	703.36	1	3	24	9	56	c	n	769.69	1	100	100	1	0
040	6	49	P	P	f	786.44	1	4	24	9	56	c	n	486.72	1	100	1000	0	0
040	6	50	N	N	d	619.66	0	3	56	9	24	i	n	884.83	1	1000	1000	1	0
040	6	51	P	P	f	653.31	1	2	56	8	24	i	j	1921.04	1	100	1000	1	0
040	6	52	P	P	f	586.73	1	3	56	7	24	i	j	553.44	1	100	1000	0	0
040	6	53	P	P	f	452.29	1	8	56	2	24	c	j	536.09	1	100	100	0	0
040	6	54	P	P	f	352.77	1	9	56	3	24	c	j	570.28	1	1000	1000	0	0
040	6	55	N	N	d	552.97	0	4	24	7	56	c	n	970.16	1	1000	1000	1	0
040	6	56	P	P	f	552.92	1	2	24	7	56	c	n	486.62	1	100	1000	1	0
040	6	57	N	N	d	486.2	0	8	56	3	24	c	j	570.63	1	100	1000	1	0
040	6	58	P	P	f	569.56	1	8	56	2	24	c	j	1253.84	1	1000	100	1	0
040	6	59	N	N	d	701.08	0	4	24	8	56	c	n	836.34	1	1000	100	1	0
040	6	60	N	N	d	603.54	0	9	24	3	56	i	j	1151.61	1	100	1000	0	0
040	6	61	P	P	f	369.37	1	8	24	2	56	i	j	536.18	0	1000	100	1	0
040	6	62	N	N	d	736.84	0	7	56	3	24	c	j	1337.13	1	1000	1000	1	1
040	6	63	N	N	d	986.7	0	2	56	8	24	i	n	1069.7	1	1000	100	0	0
040	6	64	N	N	d	352.72	0	8	56	3	24	c	j	1002.3	1	100	1000	0	0
040	6	65	P	P	f	903.25	1	8	24	4	56	i	n	419.97	1	100	1000	1	0
