subj	block	trial	task_cue	task	choice_resp	choiceRT	choice_acc	topnum	topsize	botnum	botsize	cong	task_resp	taskRT	task_acc	RSI	CSI	altRep	E1
043	1	1	?	P	f	2003.72	NA	3	56	7	24	i	j	3105.3	1	1000	100	-1	0
043	1	2	?	P	f	3371.84	NA	2	56	7	24	i	j	2154.12	1	1000	1000	0	0
043	1	3	?	N	d	1803.49	NA	4	56	7	24	i	n	2871.24	1	100	100	0	0
043	1	4	?	P	f	952.67	NA	2	24	8	56	c	n	1035.96	1	1000	1000	0	0
043	1	5	?	N	d	551.6	NA	7	56	4	24	c	j	1386.47	1	1000	100	0	0
043	1	6	?	N	d	350.52	NA	2	56	9	24	i	n	1386.4	1	1000	100	0	0
043	1	7	?	N	d	851.63	NA	9	56	4	24	c	j	886.14	1	1000	1000	0	0
043	1	8	?	P	f	1886.05	NA	2	24	8	56	c	n	986.65	1	100	100	0	0
043	1	9	?	N	d	2320.28	NA	3	56	8	24	i	n	1086.53	1	100	1000	0	0
043	1	10	?	P	f	318.2	NA	9	56	2	24	c	j	886.53	1	1000	100	0	0
043	1	11	?	N	d	418.91	NA	9	24	4	56	i	j	1586.9	1	1000	100	0	0
043	1	12	?	P	f	886.31	NA	7	56	3	24	c	j	519.03	1	1000	1000	0	0
043	1	13	?	N	d	2070.76	NA	4	56	9	24	i	n	1386.69	1	100	1000	0	0
043	1	14	?	P	f	1253.01	NA	2	56	9	24	i	j	702.93	1	100	100	0	0
043	1	15	?	P	f	301.79	NA	9	24	4	56	i	n	702.39	1	1000	100	0	0
043	1	16	?	N	d	1152.99	NA	9	24	3	56	i	j	835.84	1	100	100	0	0
043	1	17	?	P	f	1670.27	NA	9	56	2	24	c	j	735.9	1	100	100	0	0
043	1	18	?	N	d	1403.86	NA	7	56	4	24	c	j	885.79	1	100	100	0	0
043	1	19	?	N	d	318.34	NA	3	24	8	56	c	n	552.01	1	1000	1000	0	0
043	1	20	?	N	d	285.35	NA	2	24	8	56	c	n	802.8	1	1000	1000	0	0
043	1	21	?	P	f	418.26	NA	9	56	3	24	c	j	485.38	1	1000	1000	0	0
043	1	22	?	P	f	719.26	NA	2	56	8	24	i	j	886.03	1	100	100	0	0
043	1	23	?	P	f	718.69	NA	8	56	3	24	c	j	1019.63	1	100	1000	0	0
043	1	24	?	P	f	1237.24	NA	4	24	7	56	c	n	1169.67	1	100	100	0	0
043	1	25	?	N	d	168.42	NA	7	24	3	56	i	j	2888.63	1	1000	1000	0	0
043	1	26	?	N	d	702.38	NA	2	24	7	56	c	n	1020.1	1	1000	100	0	0
043	1	27	?	P	f	1686.4	NA	8	56	3	24	c	j	1404.28	1	100	1000	0	0
043	1	28	?	N	d	720.17	NA	4	56	9	24	i	n	1002.74	1	100	100	0	0
043	1	29	?	P	f	668.87	NA	3	56	8	24	i	j	552.53	1	100	1000	0	0
043	1	30	?	N	d	2087.68	NA	2	24	8	56	c	n	2587.29	1	1000	100	0	0
043	1	31	?	P	f	785.54	NA	8	56	4	24	c	j	919.37	1	1000	100	0	0
043	1	32	?	P	f	1002.89	NA	9	24	3	56	i	n	1185.6	1	100	1000	0	0
043	1	33	?	N	d	969.15	NA	2	56	9	24	i	n	769.25	1	100	100	0	0
043	1	34	?	N	d	1153.0	NA	7	56	3	24	c	j	1286.69	1	100	1000	0	0
043	1	35	?	N	d	352.02	NA	7	24	4	56	i	j	1119.14	1	1000	1000	0	0
043	1	36	?	P	f	135.07	NA	7	24	2	56	i	n	552.5	1	1000	1000	0	0
043	1	37	?	P	f	1336.46	NA	8	24	3	56	i	n	834.58	1	100	100	0	0
043	1	38	?	N	d	402.0	NA	9	56	4	24	c	j	1386.82	1	1000	1000	0	0
043	1	39	?	N	d	3722.43	NA	2	24	9	56	c	n	2554.79	1	100	100	0	0
043	1	40	?	P	f	234.74	NA	4	24	7	56	c	n	1052.81	1	1000	1000	0	0
043	1	41	?	P	f	1470.28	NA	7	56	2	24	c	j	1319.69	1	1000	100	0	0
043	1	42	?	N	d	1219.73	NA	8	56	4	24	c	j	952.81	1	100	1000	0	0
043	1	43	?	N	d	284.78	NA	7	24	3	56	i	j	819.53	1	1000	100	0	0
043	1	44	?	N	d	1436.67	NA	8	24	2	56	i	j	986.31	1	100	1000	0	0
043	1	45	?	N	d	953.44	NA	4	24	7	56	c	n	2170.84	1	100	100	0	0
043	1	46	?	P	f	2938.48	NA	2	24	7	56	c	n	552.33	1	100	1000	0	0
043	1	47	?	P	f	1019.47	NA	9	56	3	24	c	j	686.67	1	100	100	0	0
043	1	48	?	N	d	284.95	NA	2	56	7	24	i	n	802.82	1	1000	1000	0	0
043	1	49	?	N	d	1286.43	NA	7	24	3	56	i	j	5157.9	1	100	1000	0	0
043	1	50	?	P	f	402.08	NA	8	24	2	56	i	n	485.71	1	1000	1000	0	0
043	1	51	?	N	d	418.25	NA	7	24	4	56	i	j	885.77	1	1000	100	0	0
043	1	52	?	N	d	285.34	NA	9	24	2	56	i	j	685.96	1	1000	1000	0	0
043	1	53	?	N	d	318.64	NA	8	24	3	56	i	j	1119.06	1	1000	100	0	0
043	1	54	?	P	f	2121.05	NA	2	24	8	56	c	n	1703.8	1	100	1000	0	0
043	1	55	?	P	f	1770.49	NA	4	56	8	24	i	j	1153.16	1	100	100	0	0
043	1	56	?	P	f	285.15	NA	7	24	2	56	i	n	568.03	1	1000	100	0	0
043	1	57	?	N	d	869.72	NA	3	56	8	24	i	n	936.03	1	100	1000	0	0
043	1	58	?	N	d	268.64	NA	4	56	7	24	i	n	836.26	1	1000	100	0	0
043	1	59	?	N	d	2537.4	NA	3	24	9	56	c	n	1569.8	1	100	1000	0	0
043	1	60	?	N	d	1485.2	NA	7	24	2	56	i	j	2804.5	1	100	1000	0	0
043	1	61	?	P	f	569.01	NA	7	56	4	24	c	j	885.92	1	100	100	0	0
043	1	62	?	N	d	1554.11	NA	2	24	9	56	c	n	1936.75	1	1000	100	0	0
043	1	63	?	P	f	885.87	NA	4	24	9	56	c	n	717.92	1	100	1000	0	0
043	1	64	?	N	d	1386.35	NA	3	24	7	56	c	n	1068.97	1	1000	100	0	0
043	1	65	?	P	f	268.64	NA	7	24	2	56	i	n	2938.85	1	1000	1000	0	0
043	2	1	?	N	d	1987.13	NA	2	56	7	24	i	n	769.83	1	100	1000	-1	0
043	2	2	?	P	f	202.09	NA	4	24	9	56	c	n	602.46	1	1000	1000	0	0
043	2	3	?	P	f	802.85	NA	2	56	9	24	i	j	552.31	1	100	1000	0	0
043	2	4	?	P	f	935.68	NA	4	56	8	24	i	j	468.71	1	100	1000	0	0
043	2	5	?	N	d	368.82	NA	7	24	2	56	i	j	935.98	1	1000	100	0	0
043	2	6	?	N	d	268.47	NA	3	56	7	24	i	n	969.47	1	1000	100	0	0
043	2	7	?	N	d	1151.95	NA	8	24	4	56	i	j	701.84	1	100	100	0	0
043	2	8	?	P	f	1886.49	NA	3	56	8	24	i	j	969.53	1	100	100	0	0
043	2	9	?	P	f	902.54	NA	9	56	4	24	c	j	1153.1	1	100	1000	0	0
043	2	10	?	N	d	485.24	NA	8	56	2	24	c	j	651.62	1	100	1000	0	0
043	2	11	?	P	f	1001.63	NA	8	24	3	56	i	n	434.74	1	100	1000	0	0
043	2	12	?	P	f	851.79	NA	7	24	2	56	i	n	569.28	1	100	1000	0	0
043	2	13	?	N	d	1686.85	NA	9	24	3	56	i	j	3105.37	1	1000	100	0	0
043	2	14	?	N	d	319.64	NA	2	24	8	56	c	n	1369.65	1	1000	100	0	0
043	2	15	?	P	f	1586.64	NA	4	56	8	24	i	j	518.52	1	1000	1000	0	0
043	2	16	?	N	d	235.39	NA	7	56	3	24	c	j	952.72	1	1000	100	0	0
043	2	17	?	N	d	235.38	NA	2	56	7	24	i	n	1103.17	1	1000	1000	0	0
043	2	18	?	N	d	285.24	NA	3	56	8	24	i	n	651.66	1	1000	1000	0	0
043	2	19	?	N	d	118.57	NA	2	56	7	24	i	n	1637.01	1	1000	100	0	0
043	2	20	?	P	f	185.3	NA	7	24	3	56	i	n	769.03	1	1000	100	0	0
043	2	21	?	P	f	234.9	NA	8	56	4	24	c	j	568.9	1	1000	1000	0	0
043	2	22	?	P	f	1069.7	NA	3	24	9	56	c	n	585.83	1	100	100	0	0
043	2	23	?	N	d	952.28	NA	2	56	7	24	i	n	669.2	1	100	1000	0	0
043	2	24	?	P	f	1102.17	NA	8	56	4	24	c	j	450.72	1	100	1000	0	0
043	2	25	?	N	d	902.89	NA	9	56	3	24	c	j	3238.67	1	100	100	0	0
043	2	26	?	P	f	552.22	NA	7	56	2	24	c	j	670.06	1	100	100	0	0
043	2	27	?	P	f	402.23	NA	7	56	3	24	c	j	518.88	1	1000	1000	0	0
043	2	28	?	N	d	18.26	NA	7	56	2	24	c	j	1653.61	1	1000	1000	0	0
043	2	29	?	N	d	835.61	NA	4	24	9	56	c	n	802.65	1	100	1000	0	0
043	2	30	?	N	d	669.09	NA	3	56	7	24	i	n	936.13	1	100	100	0	0
043	2	31	?	P	f	1402.98	NA	2	56	9	24	i	j	502.58	1	1000	1000	0	0
043	2	32	?	P	f	953.66	NA	7	24	4	56	i	n	669.78	1	100	1000	0	0
043	2	33	?	N	d	151.88	NA	2	24	8	56	c	n	1002.15	1	1000	100	0	0
043	2	34	?	P	f	135.2	NA	3	24	7	56	c	n	1136.29	1	1000	1000	0	0
043	2	35	?	N	d	84.67	NA	2	24	8	56	c	n	1469.9	1	1000	100	0	0
043	2	36	?	N	d	769.58	NA	9	56	3	24	c	j	1002.96	1	100	100	0	0
043	2	37	?	N	d	1186.51	NA	4	24	7	56	c	n	919.45	1	100	100	0	0
043	2	38	?	N	d	1119.65	NA	2	24	7	56	c	n	1186.26	1	100	1000	0	0
043	2	39	?	N	d	952.4	NA	3	24	7	56	c	n	702.51	1	100	100	0	0
043	2	40	?	N	d	85.15	NA	2	24	9	56	c	n	1420.21	1	1000	1000	0	0
043	2	41	?	P	f	1203.19	NA	7	56	3	24	c	j	619.06	1	100	1000	0	0
043	2	42	?	P	f	1286.58	NA	7	24	2	56	i	n	835.85	1	100	100	0	0
043	2	43	?	P	f	518.68	NA	7	24	3	56	i	n	1035.66	1	100	100	0	0
043	2	44	?	P	f	1036.21	NA	9	24	4	56	i	n	919.14	1	100	100	0	0
043	2	45	?	N	d	1135.88	NA	2	56	9	24	i	n	753.21	1	1000	100	0	0
043	2	46	?	N	d	1035.98	NA	9	24	3	56	i	j	2204.29	1	100	1000	0	0
043	2	47	?	N	d	1052.29	NA	8	24	2	56	i	j	669.39	1	100	1000	0	0
043	2	48	?	P	f	1085.88	NA	3	56	9	24	i	j	618.82	1	100	100	0	0
043	2	49	?	P	f	1068.52	NA	9	56	2	24	c	j	635.63	1	100	100	0	0
043	2	50	?	N	d	1152.19	NA	9	24	3	56	i	j	819.04	1	1000	1000	0	0
043	2	51	?	N	d	518.44	NA	2	24	8	56	c	n	936.17	1	1000	100	0	0
043	2	52	?	N	d	903.06	NA	4	24	8	56	c	n	485.55	1	100	1000	0	0
043	2	53	?	P	f	584.83	NA	3	24	7	56	c	n	602.99	1	100	100	0	0
043	2	54	?	P	f	118.53	NA	2	56	9	24	i	j	536.05	1	1000	100	0	0
043	2	55	?	N	d	268.54	NA	8	56	3	24	c	j	853.12	1	1000	1000	0	0
043	2	56	?	N	d	302.02	NA	7	24	4	56	i	j	769.26	1	1000	100	0	0
043	2	57	?	P	f	402.1	NA	9	56	3	24	c	j	851.54	1	1000	100	0	0
043	2	58	?	P	f	268.95	NA	4	56	9	24	i	j	569.03	1	1000	1000	0	0
043	2	59	?	N	d	284.62	NA	3	56	8	24	i	n	652.65	1	1000	1000	0	0
043	2	60	?	N	d	133.54	NA	4	24	7	56	c	n	919.64	1	1000	1000	0	0
043	2	61	?	N	d	685.74	NA	7	56	2	24	c	j	1436.68	1	1000	100	0	0
043	2	62	?	P	f	368.24	NA	8	24	3	56	i	n	1219.8	1	1000	1000	0	0
043	2	63	?	N	d	135.36	NA	7	56	2	24	c	j	719.12	1	1000	100	0	0
043	2	64	?	P	f	836.08	NA	4	24	8	56	c	n	652.43	1	100	1000	0	0
043	2	65	?	N	d	701.18	NA	7	24	3	56	i	j	736.53	1	100	100	0	0
043	3	1	?	N	d	3222.12	NA	7	56	3	24	c	j	1002.79	1	100	100	-1	0
043	3	2	?	P	f	1687.34	NA	8	24	4	56	i	n	802.84	1	1000	100	0	0
043	3	3	?	P	f	635.99	NA	8	56	2	24	c	j	3188.23	1	100	1000	0	0
043	3	4	?	P	f	668.8	NA	7	24	4	56	i	n	568.72	1	100	100	0	0
043	3	5	?	N	d	452.24	NA	3	56	8	24	i	n	634.57	1	100	1000	0	0
043	3	6	?	N	d	335.75	NA	8	24	2	56	i	j	619.03	1	1000	1000	0	0
043	3	7	?	N	d	1169.44	NA	3	56	8	24	i	n	952.41	1	100	100	0	0
043	3	8	?	P	f	835.97	NA	4	24	8	56	c	n	467.42	1	100	1000	0	0
043	3	9	?	P	f	318.74	NA	3	56	7	24	i	j	786.05	1	1000	100	0	0
043	3	10	?	P	f	1353.24	NA	8	24	2	56	i	n	836.04	1	100	1000	0	0
043	3	11	?	N	d	168.63	NA	3	56	7	24	i	n	786.12	1	1000	100	0	0
043	3	12	?	N	d	1019.55	NA	9	24	2	56	i	j	735.88	1	100	1000	0	0
043	3	13	?	N	d	1236.55	NA	7	24	4	56	i	j	3255.6	1	100	1000	0	0
043	3	14	?	P	f	1086.23	NA	2	56	9	24	i	j	468.92	1	1000	1000	0	0
043	3	15	?	N	d	919.58	NA	4	56	7	24	i	n	786.0	1	100	1000	0	0
043	3	16	?	P	f	1018.68	NA	2	56	8	24	i	j	1636.88	1	100	1000	0	0
043	3	17	?	N	d	351.46	NA	4	24	8	56	c	n	953.28	1	1000	1000	0	0
043	3	18	?	N	d	367.93	NA	2	24	9	56	c	n	1535.45	1	1000	100	0	0
043	3	19	?	P	f	350.73	NA	8	24	4	56	i	n	501.5	1	1000	1000	0	0
043	3	20	?	P	f	400.7	NA	3	56	7	24	i	j	1051.52	1	1000	100	0	0
043	3	21	?	N	d	218.72	NA	8	56	2	24	c	j	568.34	1	1000	100	0	0
043	3	22	?	N	d	1136.9	NA	7	56	4	24	c	j	1169.87	1	100	1000	0	0
043	3	23	?	P	f	919.33	NA	2	24	8	56	c	n	518.3	1	100	100	0	0
043	3	24	?	N	d	1169.96	NA	7	56	3	24	c	j	2037.53	1	100	100	0	0
043	3	25	?	P	f	318.3	NA	8	56	2	24	c	j	1203.4	1	1000	100	0	0
043	3	26	?	P	f	1353.16	NA	4	56	8	24	i	j	502.31	1	100	1000	0	0
043	3	27	?	N	d	118.45	NA	9	56	2	24	c	j	769.42	1	1000	100	0	0
043	3	28	?	N	d	285.2	NA	9	56	3	24	c	j	485.52	1	1000	1000	0	0
043	3	29	?	N	d	1019.47	NA	7	24	4	56	i	j	868.46	1	100	100	0	0
043	3	30	?	N	d	1186.23	NA	9	56	2	24	c	j	1737.41	1	100	1000	0	0
043	3	31	?	P	f	5190.69	NA	9	56	4	24	c	j	451.91	1	1000	1000	0	0
043	3	32	?	N	d	918.88	NA	2	24	7	56	c	n	719.24	1	100	1000	0	0
043	3	33	?	N	d	802.12	NA	3	24	8	56	c	n	2087.09	1	100	1000	0	0
043	3	34	?	P	f	1552.83	NA	4	56	9	24	i	j	2855.08	1	1000	100	0	0
043	3	35	?	P	f	1203.33	NA	3	24	8	56	c	n	719.21	1	100	100	0	0
043	3	36	?	P	f	1453.27	NA	4	24	7	56	c	n	452.31	1	100	1000	0	0
043	3	37	?	N	d	1319.39	NA	8	56	3	24	c	j	819.35	1	100	100	0	0
043	3	38	?	N	d	252.02	NA	4	56	7	24	i	n	702.77	1	1000	100	0	0
043	3	39	?	N	d	401.08	NA	3	24	7	56	c	n	3989.57	1	1000	100	0	0
043	3	40	?	P	f	351.68	NA	9	24	2	56	i	n	901.61	1	100	100	0	0
043	3	41	?	N	d	618.84	NA	3	56	9	24	i	n	569.16	1	1000	1000	0	0
043	3	42	?	P	f	367.31	NA	4	24	8	56	c	n	735.74	1	1000	1000	0	0
043	3	43	?	P	f	201.8	NA	9	24	2	56	i	n	818.03	1	1000	100	0	0
043	3	44	?	P	f	318.7	NA	8	24	4	56	i	n	434.9	1	1000	1000	0	0
043	3	45	?	N	d	1136.08	NA	2	56	9	24	i	n	835.78	1	100	100	0	0
043	3	46	?	N	d	352.09	NA	9	24	4	56	i	j	719.12	1	1000	100	0	0
043	3	47	?	P	f	1386.68	NA	2	24	8	56	c	n	652.49	1	100	100	0	0
043	3	48	?	P	f	1335.12	NA	8	56	3	24	c	j	569.46	1	100	100	0	0
043	3	49	?	N	d	368.82	NA	4	24	9	56	c	n	886.06	1	1000	100	0	0
043	3	50	?	N	d	2687.79	NA	2	24	7	56	c	n	1002.2	1	100	100	0	0
043	3	51	?	P	f	368.96	NA	7	24	3	56	i	j	734.34	0	1000	1000	0	0
043	3	52	?	P	f	3454.53	NA	9	56	2	24	c	j	919.71	1	100	1000	0	1
043	3	53	?	N	d	252.15	NA	3	24	8	56	c	n	1787.53	1	1000	1000	0	0
043	3	54	?	N	d	201.64	NA	2	24	8	56	c	n	1236.5	1	1000	1000	0	0
043	3	55	?	N	d	1403.4	NA	8	56	4	24	c	j	1586.72	1	100	100	0	0
043	3	56	?	N	d	1086.4	NA	8	24	3	56	i	j	702.24	1	100	100	0	0
043	3	57	?	P	f	1386.55	NA	2	56	8	24	i	j	1119.99	1	100	100	0	0
043	3	58	?	P	f	285.27	NA	8	56	4	24	c	j	601.92	1	1000	1000	0	0
043	3	59	?	P	f	485.5	NA	2	24	9	56	c	n	552.49	1	1000	100	0	0
043	3	60	?	P	f	1403.14	NA	3	56	8	24	i	j	669.35	1	100	100	0	0
043	3	61	?	N	d	334.53	NA	7	24	2	56	i	j	585.92	1	1000	1000	0	0
043	3	62	?	P	f	1437.16	NA	7	24	3	56	i	n	601.5	1	100	1000	0	0
043	3	63	?	N	d	318.25	NA	8	24	2	56	i	j	1570.42	1	1000	1000	0	0
043	3	64	?	N	d	552.14	NA	8	56	3	24	c	j	1469.89	1	1000	100	0	0
043	3	65	?	N	d	384.84	NA	8	56	2	24	c	j	552.62	1	1000	1000	0	0
043	4	1	?	P	f	802.52	NA	9	24	3	56	i	n	852.9	1	1000	1000	-1	0
043	4	2	?	N	d	1219.12	NA	4	56	7	24	i	n	752.61	1	100	100	0	0
043	4	3	?	N	d	1119.62	NA	3	24	9	56	c	n	769.32	1	100	1000	0	0
043	4	4	?	P	f	302.09	NA	8	24	4	56	i	n	602.47	1	1000	1000	0	0
043	4	5	?	P	f	401.78	NA	8	24	2	56	i	n	920.08	1	1000	100	0	0
043	4	6	?	P	f	519.46	NA	3	24	9	56	c	n	802.73	1	1000	100	0	0
043	4	7	?	N	d	1769.9	NA	4	56	9	24	i	n	836.01	1	100	1000	0	0
043	4	8	?	N	d	1703.53	NA	2	24	9	56	c	n	485.75	1	100	1000	0	0
043	4	9	?	P	f	1253.19	NA	8	56	4	24	c	j	368.81	1	100	1000	0	0
043	4	10	?	N	d	1520.27	NA	7	24	2	56	i	j	669.13	1	100	100	0	0
043	4	11	?	N	d	385.53	NA	4	24	8	56	c	n	702.58	1	1000	100	0	0
043	4	12	?	P	f	318.57	NA	9	56	2	24	c	j	953.48	1	1000	1000	0	0
043	4	13	?	P	f	2005.03	NA	3	56	9	24	i	j	935.71	1	100	100	0	0
043	4	14	?	N	d	335.35	NA	2	24	7	56	c	n	1286.51	1	1000	100	0	0
043	4	15	?	N	d	1269.83	NA	9	56	4	24	c	j	2487.99	1	100	100	0	0
043	4	16	?	P	f	367.96	NA	3	56	8	24	i	j	585.81	1	1000	100	0	0
043	4	17	?	P	f	1636.92	NA	8	24	4	56	i	n	1253.37	1	100	1000	0	0
043	4	18	?	P	f	602.35	NA	3	24	9	56	c	n	1086.36	1	1000	100	0	0
043	4	19	?	N	d	385.3	NA	4	56	8	24	i	n	652.05	1	1000	100	0	0
043	4	20	?	N	d	2386.34	NA	9	56	3	24	c	j	785.42	1	100	100	0	0
043	4	21	?	N	d	435.46	NA	2	24	8	56	c	n	786.16	1	1000	1000	0	0
043	4	22	?	P	f	1887.32	NA	9	56	4	24	c	j	535.82	1	100	1000	0	0
043	4	23	?	P	f	1770.28	NA	7	56	3	24	c	j	536.02	1	100	100	0	0
043	4	24	?	P	f	334.72	NA	2	24	9	56	c	n	669.12	1	1000	1000	0	0
043	4	25	?	P	f	1469.51	NA	4	24	7	56	c	n	935.68	1	100	1000	0	0
043	4	26	?	N	d	368.75	NA	2	24	8	56	c	n	602.09	1	1000	1000	0	0
043	4	27	?	N	d	301.64	NA	8	24	4	56	i	j	752.71	1	1000	1000	0	0
043	4	28	?	P	f	318.37	NA	9	56	2	24	c	j	702.6	1	1000	100	0	0
043	4	29	?	N	d	168.56	NA	8	56	4	24	c	j	635.88	1	1000	100	0	0
043	4	30	?	N	d	401.9	NA	2	56	8	24	i	n	686.06	1	1000	1000	0	0
043	4	31	?	P	f	285.51	NA	4	24	8	56	c	n	468.97	1	1000	1000	0	0
043	4	32	?	P	f	1887.36	NA	2	56	8	24	i	j	1503.33	1	100	1000	0	0
043	4	33	?	P	f	1069.19	NA	7	24	4	56	i	n	552.27	1	100	1000	0	0
043	4	34	?	N	d	1303.5	NA	9	24	2	56	i	j	702.48	1	100	1000	0	0
043	4	35	?	N	d	2087.12	NA	4	56	8	24	i	n	1570.12	1	100	100	0	0
043	4	36	?	P	f	417.16	NA	7	24	2	56	i	n	469.03	1	1000	1000	0	0
043	4	37	?	N	d	1253.35	NA	7	56	4	24	c	j	901.83	1	100	1000	0	0
043	4	38	?	N	d	1686.36	NA	9	24	3	56	i	j	669.15	1	100	1000	0	0
043	4	39	?	P	f	452.13	NA	8	56	2	24	c	j	435.77	1	1000	1000	0	0
043	4	40	?	P	f	351.85	NA	4	56	7	24	i	j	1803.68	1	1000	100	0	0
043	4	41	?	N	d	1153.46	NA	2	56	7	24	i	n	552.5	1	100	1000	0	0
043	4	42	?	N	d	1503.59	NA	4	24	7	56	c	n	552.23	1	100	1000	0	0
043	4	43	?	P	f	368.57	NA	2	56	8	24	i	j	419.2	1	1000	1000	0	0
043	4	44	?	P	f	385.48	NA	4	56	7	24	i	j	434.75	1	1000	1000	0	0
043	4	45	?	P	f	2121.04	NA	2	24	8	56	c	n	619.33	1	100	100	0	0
043	4	46	?	P	f	2337.55	NA	8	24	4	56	i	n	902.8	1	100	100	0	0
043	4	47	?	N	d	1568.71	NA	2	24	8	56	c	n	970.07	1	100	100	0	0
043	4	48	?	P	f	1987.68	NA	8	24	4	56	i	n	518.67	1	100	100	0	0
043	4	49	?	N	d	368.68	NA	8	24	3	56	i	j	535.92	1	1000	1000	0	0
043	4	50	?	N	d	1486.65	NA	8	24	4	56	i	j	1336.36	1	100	1000	0	0
043	4	51	?	P	f	1803.53	NA	3	56	9	24	i	j	535.76	1	100	100	0	0
043	4	52	?	N	d	368.52	NA	7	24	2	56	i	j	802.77	1	1000	100	0	0
043	4	53	?	N	d	1536.14	NA	8	24	4	56	i	j	668.79	1	100	100	0	0
043	4	54	?	N	d	1920.29	NA	7	56	2	24	c	j	719.29	1	100	100	0	0
043	4	55	?	P	f	1187.05	NA	3	24	8	56	c	n	419.29	1	100	100	0	0
043	4	56	?	N	d	869.22	NA	2	56	9	24	i	n	636.19	1	1000	100	0	0
043	4	57	?	P	f	335.13	NA	8	56	3	24	c	j	719.41	1	1000	100	0	0
043	4	58	?	N	d	200.93	NA	4	56	9	24	i	n	686.28	1	1000	1000	0	0
043	4	59	?	P	f	268.59	NA	9	56	2	24	c	j	718.99	1	1000	100	0	0
043	4	60	?	P	f	301.65	NA	8	24	4	56	i	n	786.16	1	1000	100	0	0
043	4	61	?	P	f	318.65	NA	2	56	7	24	i	j	519.07	1	1000	100	0	0
043	4	62	?	N	d	285.12	NA	8	56	4	24	c	j	602.48	1	1000	1000	0	0
043	4	63	?	N	d	1069.26	NA	9	56	2	24	c	j	451.84	1	100	1000	0	0
043	4	64	?	P	f	418.79	NA	7	56	3	24	c	j	368.48	1	1000	1000	0	0
043	4	65	?	N	d	1553.53	NA	2	24	9	56	c	n	584.42	1	100	100	0	0
043	5	1	?	N	d	585.49	NA	7	24	4	56	i	j	1837.46	1	100	100	-1	0
043	5	2	?	P	f	285.25	NA	2	24	9	56	c	n	469.23	1	1000	100	0	0
043	5	3	?	P	f	2270.99	NA	3	24	9	56	c	n	768.94	1	100	100	0	0
043	5	4	?	N	d	285.1	NA	9	24	2	56	i	j	468.78	1	1000	1000	0	0
043	5	5	?	N	d	168.28	NA	8	56	3	24	c	j	1019.59	1	1000	100	0	0
043	5	6	?	P	f	1435.93	NA	4	24	7	56	c	n	619.33	1	100	1000	0	0
043	5	7	?	N	d	4673.08	NA	3	24	9	56	c	n	519.07	1	100	1000	0	0
043	5	8	?	N	d	335.03	NA	9	56	2	24	c	j	468.91	1	1000	100	0	0
043	5	9	?	N	d	301.41	NA	3	24	9	56	c	n	452.52	1	1000	100	0	0
043	5	10	?	P	f	1686.91	NA	2	56	9	24	i	j	484.96	1	100	1000	0	0
043	5	11	?	N	d	335.15	NA	3	56	7	24	i	n	452.51	1	1000	1000	0	0
043	5	12	?	N	d	285.33	NA	9	56	2	24	c	j	1269.21	1	1000	1000	0	0
043	5	13	?	N	d	168.77	NA	9	56	4	24	c	j	552.78	1	1000	1000	0	0
043	5	14	?	N	d	1052.38	NA	9	24	3	56	i	j	786.0	1	100	100	0	0
043	5	15	?	P	f	402.07	NA	4	56	8	24	i	j	669.36	1	1000	100	0	0
043	5	16	?	N	d	251.13	NA	3	24	7	56	c	n	786.07	1	1000	1000	0	0
043	5	17	?	P	f	268.63	NA	9	24	4	56	i	n	368.21	1	1000	1000	0	0
043	5	18	?	P	f	1403.22	NA	2	56	7	24	i	j	619.15	1	100	100	0	0
043	5	19	?	P	f	1204.05	NA	9	56	3	24	c	j	401.35	1	100	1000	0	0
043	5	20	?	N	d	252.46	NA	2	24	8	56	c	n	802.14	1	1000	100	0	0
043	5	21	?	N	d	1386.21	NA	4	24	7	56	c	n	735.77	1	100	100	0	0
043	5	22	?	P	f	335.61	NA	3	24	9	56	c	n	585.44	1	1000	100	0	0
043	5	23	?	P	f	2053.69	NA	9	24	4	56	i	n	685.96	1	100	1000	0	0
043	5	24	?	N	d	1603.39	NA	3	56	7	24	i	n	752.4	1	100	100	0	0
043	5	25	?	P	f	1536.54	NA	7	56	4	24	c	j	334.95	1	100	1000	0	0
043	5	26	?	N	d	285.36	NA	9	56	2	24	c	j	902.81	1	1000	1000	0	0
043	5	27	?	N	d	1486.4	NA	4	56	8	24	i	n	652.32	1	100	100	0	0
043	5	28	?	N	d	301.81	NA	9	24	2	56	i	j	568.61	1	1000	100	0	0
043	5	29	?	N	d	1386.48	NA	7	24	4	56	i	j	1303.22	1	100	1000	0	0
043	5	30	?	N	d	234.93	NA	7	56	3	24	c	j	1636.65	1	1000	100	0	0
043	5	31	?	P	f	518.32	NA	8	56	2	24	c	j	452.53	1	100	1000	0	0
043	5	32	?	N	d	168.23	NA	4	24	7	56	c	n	786.5	1	1000	1000	0	0
043	5	33	?	P	f	335.37	NA	8	24	2	56	i	n	652.82	1	1000	1000	0	0
043	5	34	?	P	f	852.57	NA	4	56	9	24	i	j	419.05	1	100	1000	0	0
043	5	35	?	P	f	1036.15	NA	2	24	9	56	c	n	1002.87	1	100	100	0	0
043	5	36	?	N	d	902.53	NA	7	56	4	24	c	j	1085.92	1	100	100	0	0
043	5	37	?	P	f	868.36	NA	8	56	2	24	c	j	435.15	1	100	100	0	0
043	5	38	?	N	d	901.78	NA	4	24	8	56	c	n	1236.48	1	100	1000	0	0
043	5	39	?	P	f	869.28	NA	7	24	2	56	i	n	585.77	1	100	1000	0	0
043	5	40	?	N	d	752.21	NA	3	24	9	56	c	n	536.0	1	1000	1000	0	0
043	5	41	?	N	d	952.82	NA	4	56	7	24	i	n	602.53	1	100	1000	0	0
043	5	42	?	P	f	118.56	NA	8	56	2	24	c	j	301.41	1	1000	1000	0	0
043	5	43	?	P	f	268.63	NA	3	56	7	24	i	j	418.95	1	1000	1000	0	0
043	5	44	?	N	d	151.63	NA	8	24	2	56	i	j	552.22	1	1000	1000	0	0
043	5	45	?	P	f	1134.56	NA	7	24	3	56	i	n	602.87	1	100	100	0	0
043	5	46	?	N	d	919.1	NA	8	24	2	56	i	j	1835.81	1	100	100	0	0
043	5	47	?	N	d	252.08	NA	8	24	3	56	i	j	519.01	1	1000	100	0	0
043	5	48	?	P	f	268.49	NA	8	24	2	56	i	n	585.43	1	1000	1000	0	0
043	5	49	?	P	f	1719.72	NA	3	24	7	56	c	n	402.35	1	100	1000	0	0
043	5	50	?	N	d	1570.2	NA	2	56	8	24	i	n	550.7	1	100	1000	0	0
043	5	51	?	N	d	234.97	NA	3	56	8	24	i	n	602.19	1	1000	100	0	0
043	5	52	?	P	f	1153.37	NA	9	56	4	24	c	j	786.29	1	100	100	0	0
043	5	53	?	N	d	1119.68	NA	3	56	9	24	i	n	935.92	1	100	100	0	0
043	5	54	?	N	d	1219.13	NA	9	24	2	56	i	j	434.99	1	100	1000	0	0
043	5	55	?	N	d	1236.48	NA	7	56	3	24	c	j	635.8	1	100	100	0	0
043	5	56	?	P	f	200.93	NA	2	56	8	24	i	j	569.18	1	1000	100	0	0
043	5	57	?	P	f	1102.94	NA	3	24	7	56	c	n	502.3	1	100	100	0	0
043	5	58	?	P	f	285.29	NA	9	24	2	56	i	n	485.9	1	1000	100	0	0
043	5	59	?	N	d	1251.61	NA	9	24	3	56	i	j	518.71	1	100	100	0	0
043	5	60	?	P	f	318.92	NA	7	24	4	56	i	n	435.61	1	1000	100	0	0
043	5	61	?	P	f	235.38	NA	3	56	9	24	i	j	635.13	1	1000	1000	0	0
043	5	62	?	N	d	1402.74	NA	8	56	4	24	c	j	535.75	1	1000	100	0	0
043	5	63	?	N	d	934.54	NA	7	56	2	24	c	j	468.33	1	100	1000	0	0
043	5	64	?	N	d	284.44	NA	4	24	9	56	c	n	585.79	1	1000	1000	0	0
043	5	65	?	N	d	235.34	NA	3	56	8	24	i	n	601.9	1	1000	100	0	0
043	6	1	?	N	d	2437.9	NA	4	56	9	24	i	n	602.42	1	1000	1000	-1	0
043	6	2	?	P	f	201.12	NA	2	24	8	56	c	n	851.6	1	1000	1000	0	0
043	6	3	?	P	f	769.32	NA	8	56	4	24	c	j	535.39	1	100	100	0	0
043	6	4	?	N	d	1068.99	NA	7	56	3	24	c	j	585.61	1	100	1000	0	0
043	6	5	?	P	f	785.6	NA	2	24	7	56	c	n	719.4	1	100	100	0	0
043	6	6	?	N	d	385.76	NA	8	24	4	56	i	j	519.18	1	1000	1000	0	0
043	6	7	?	N	d	869.84	NA	2	24	8	56	c	n	535.75	1	100	1000	0	0
043	6	8	?	N	d	585.66	NA	9	24	3	56	i	j	502.44	1	100	1000	0	0
043	6	9	?	P	f	769.42	NA	2	56	9	24	i	j	552.58	1	100	1000	0	0
043	6	10	?	N	d	518.92	NA	9	56	4	24	c	j	535.91	1	100	1000	0	0
043	6	11	?	P	f	902.49	NA	8	24	3	56	i	n	570.39	1	100	1000	0	0
043	6	12	?	N	d	602.77	NA	2	56	8	24	i	n	568.46	1	100	100	0	0
043	6	13	?	P	f	418.78	NA	3	24	9	56	c	n	919.25	1	100	1000	0	0
043	6	14	?	P	f	485.82	NA	4	56	9	24	i	j	468.73	1	100	100	0	0
043	6	15	?	P	f	51.73	NA	2	56	7	24	i	j	569.85	1	1000	100	0	0
043	6	16	?	N	d	902.48	NA	3	24	9	56	c	n	535.9	1	100	1000	0	0
043	6	17	?	N	d	652.56	NA	4	24	7	56	c	n	535.46	1	100	100	0	0
043	6	18	?	P	f	519.05	NA	9	56	3	24	c	j	385.29	1	1000	100	0	0
043	6	19	?	P	f	268.72	NA	2	24	7	56	c	n	617.6	1	1000	1000	0	0
043	6	20	?	N	d	1269.81	NA	4	24	9	56	c	n	552.5	1	100	100	0	0
043	6	21	?	N	d	302.01	NA	2	24	8	56	c	n	535.24	1	1000	100	0	0
043	6	22	?	N	d	301.84	NA	4	56	7	24	i	n	786.02	1	1000	100	0	0
043	6	23	?	N	d	1052.73	NA	7	24	2	56	i	j	701.19	1	100	1000	0	0
043	6	24	?	N	d	285.56	NA	7	24	3	56	i	j	1201.8	1	1000	1000	0	0
043	6	25	?	N	d	735.59	NA	8	24	4	56	i	j	702.57	1	100	100	0	0
043	6	26	?	P	f	1302.24	NA	8	24	3	56	i	n	635.99	1	1000	100	0	0
043	6	27	?	N	d	218.53	NA	2	56	9	24	i	n	735.81	1	1000	1000	0	0
043	6	28	?	P	f	135.13	NA	3	56	8	24	i	j	334.9	1	1000	1000	0	0
043	6	29	?	P	f	1336.34	NA	2	56	9	24	i	j	519.02	1	100	1000	0	0
043	6	30	?	N	d	902.73	NA	3	56	7	24	i	n	603.1	1	100	1000	0	0
043	6	31	?	P	f	185.4	NA	7	56	4	24	c	j	1035.85	1	1000	100	0	0
043	6	32	?	N	d	184.91	NA	7	24	2	56	i	j	1017.93	1	1000	1000	0	0
043	6	33	?	N	d	152.14	NA	4	56	7	24	i	n	736.28	1	1000	1000	0	0
043	6	34	?	N	d	1086.3	NA	3	56	7	24	i	n	552.25	1	1000	100	0	0
043	6	35	?	P	f	1336.97	NA	9	56	4	24	c	j	418.97	1	100	100	0	0
043	6	36	?	N	d	251.9	NA	8	56	2	24	c	j	485.83	1	1000	1000	0	0
043	6	37	?	P	f	886.11	NA	3	24	8	56	c	n	535.24	1	100	100	0	0
043	6	38	?	P	f	68.05	NA	4	24	9	56	c	n	469.02	1	1000	100	0	0
043	6	39	?	P	f	485.51	NA	3	24	8	56	c	n	419.19	1	1000	100	0	0
043	6	40	?	P	f	1302.55	NA	8	24	4	56	i	n	1219.43	1	100	100	0	0
043	6	41	?	N	d	352.2	NA	3	24	7	56	c	n	669.25	1	1000	100	0	0
043	6	42	?	P	f	84.15	NA	9	56	2	24	c	j	417.44	1	1000	100	0	0
043	6	43	?	N	d	1086.07	NA	7	56	3	24	c	j	469.08	1	100	100	0	0
043	6	44	?	N	d	218.21	NA	2	24	7	56	c	n	518.75	1	1000	1000	0	0
043	6	45	?	N	d	318.81	NA	4	24	8	56	c	n	686.0	1	1000	1000	0	0
043	6	46	?	N	d	1186.06	NA	7	56	3	24	c	j	919.36	1	100	100	0	0
043	6	47	?	P	f	268.44	NA	8	56	4	24	c	j	769.45	1	1000	100	0	0
043	6	48	?	P	f	302.16	NA	3	56	7	24	i	j	569.22	1	1000	100	0	0
043	6	49	?	P	f	702.42	NA	9	24	4	56	i	n	668.57	1	1000	100	0	0
043	6	50	?	P	f	1803.8	NA	7	56	2	24	c	j	685.94	1	100	1000	0	0
043	6	51	?	N	d	1219.65	NA	4	56	9	24	i	n	519.21	1	100	1000	0	0
043	6	52	?	N	d	968.69	NA	7	24	2	56	i	j	718.57	1	1000	100	0	0
043	6	53	?	N	d	333.96	NA	4	56	7	24	i	n	852.81	1	1000	1000	0	0
043	6	54	?	N	d	1887.07	NA	8	56	3	24	c	j	1286.71	1	100	1000	0	0
043	6	55	?	P	f	569.01	NA	7	56	2	24	c	j	469.22	1	1000	1000	0	0
043	6	56	?	N	d	252.17	NA	8	56	4	24	c	j	2071.61	1	1000	1000	0	0
043	6	57	?	P	f	1403.36	NA	2	24	7	56	c	n	2136.91	1	100	1000	0	0
043	6	58	?	N	d	968.42	NA	4	56	8	24	i	n	835.91	1	100	100	0	0
043	6	59	?	N	d	1503.77	NA	7	24	3	56	i	j	519.16	1	100	100	0	0
043	6	60	?	N	d	318.41	NA	7	56	2	24	c	j	518.32	1	1000	1000	0	0
043	6	61	?	P	f	502.08	NA	4	56	8	24	i	j	986.57	1	1000	100	0	0
043	6	62	?	N	d	1219.54	NA	2	56	9	24	i	n	719.41	1	100	100	0	0
043	6	63	?	P	f	1319.56	NA	8	24	3	56	i	n	1386.31	1	100	1000	0	0
043	6	64	?	P	f	302.08	NA	7	24	2	56	i	n	836.24	1	1000	1000	0	0
043	6	65	?	P	f	1286.45	NA	4	56	9	24	i	j	818.77	1	100	100	0	0
