subj	block	trial	task_cue	task	choice_resp	choiceRT	choice_acc	topnum	topsize	botnum	botsize	cong	task_resp	taskRT	task_acc	RSI	CSI	altRep	E1
047	1	1	?	P	f	1385.24	NA	2	56	9	24	i	j	553.06	1	100	1000	-1	0
047	1	2	?	P	f	1270.68	NA	4	24	8	56	c	n	970.19	1	100	100	0	0
047	1	3	?	N	d	602.88	NA	8	56	2	24	c	j	1420.84	1	1000	1000	0	0
047	1	4	?	P	f	603.19	NA	4	56	8	24	i	j	1752.84	1	1000	100	0	0
047	1	5	?	N	d	636.8	NA	8	24	2	56	i	j	1420.77	1	100	100	0	0
047	1	6	?	N	d	535.78	NA	9	56	4	24	c	j	968.16	1	1000	1000	0	0
047	1	7	?	P	f	753.34	NA	2	56	8	24	i	j	1905.02	1	100	100	0	0
047	1	8	?	N	d	2422.1	NA	9	24	4	56	i	j	1787.45	1	100	1000	0	0
047	1	9	?	N	d	286.23	NA	7	56	2	24	c	j	986.92	1	1000	100	0	0
047	1	10	?	P	f	336.36	NA	8	24	4	56	i	n	1487.11	1	1000	1000	0	0
047	1	11	?	P	f	569.93	NA	3	24	7	56	c	n	620.09	1	1000	1000	0	0
047	1	12	?	N	d	836.51	NA	8	56	2	24	c	j	886.82	1	100	100	0	0
047	1	13	?	N	d	484.01	NA	4	56	7	24	i	n	919.76	1	1000	100	0	0
047	1	14	?	P	f	686.23	NA	7	24	2	56	i	j	1370.78	0	1000	1000	0	0
047	1	15	?	P	f	1136.61	NA	8	56	4	24	c	j	553.71	1	100	100	0	1
047	1	16	?	N	d	1186.93	NA	3	56	9	24	i	n	837.36	1	100	1000	0	0
047	1	17	?	P	f	1854.79	NA	4	24	7	56	c	n	919.75	1	100	1000	0	0
047	1	18	?	P	f	603.45	NA	8	56	2	24	c	j	669.47	1	100	100	0	0
047	1	19	?	N	d	353.09	NA	9	24	3	56	i	j	1638.17	1	1000	1000	0	0
047	1	20	?	N	d	819.76	NA	9	56	2	24	c	j	802.69	1	100	1000	0	0
047	1	21	?	P	f	469.84	NA	7	56	3	24	c	j	1320.69	1	1000	1000	0	0
047	1	22	?	N	d	736.55	NA	2	56	9	24	i	n	803.53	1	100	1000	0	0
047	1	23	?	P	f	586.65	NA	3	56	9	24	i	j	984.43	1	100	1000	0	0
047	1	24	?	N	d	552.49	NA	9	24	2	56	i	j	1070.3	1	1000	100	0	0
047	1	25	?	N	d	1336.78	NA	9	56	4	24	c	j	669.35	1	100	1000	0	0
047	1	26	?	P	f	1220.02	NA	3	24	7	56	c	n	1137.26	1	1000	100	0	0
047	1	27	?	N	d	252.94	NA	9	56	4	24	c	j	1203.73	1	1000	100	0	0
047	1	28	?	N	d	52.44	NA	2	56	9	24	i	n	652.92	1	1000	1000	0	0
047	1	29	?	P	f	1320.59	NA	3	56	7	24	i	j	768.16	1	1000	1000	0	0
047	1	30	?	P	f	86.09	NA	4	24	7	56	c	n	2338.27	1	1000	100	0	0
047	1	31	?	N	d	419.19	NA	2	56	7	24	i	n	1370.69	1	1000	100	0	0
047	1	32	?	N	d	687.01	NA	3	56	9	24	i	n	1370.99	1	1000	100	0	0
047	1	33	?	N	d	403.0	NA	2	24	9	56	c	n	702.92	1	1000	1000	0	0
047	1	34	?	P	f	701.05	NA	8	56	3	24	c	j	936.82	1	100	1000	0	0
047	1	35	?	N	d	670.0	NA	2	56	9	24	i	j	686.46	0	100	100	0	0
047	1	36	?	N	d	720.06	NA	3	24	7	56	c	n	586.61	1	1000	1000	0	1
047	1	37	?	P	f	586.61	NA	4	24	9	56	c	n	719.79	1	1000	100	0	0
047	1	38	?	P	f	469.75	NA	2	56	9	24	i	j	584.5	1	1000	1000	0	0
047	1	39	?	N	d	368.94	NA	3	56	8	24	i	n	1754.56	1	1000	1000	0	0
047	1	40	?	N	d	752.82	NA	8	24	4	56	i	j	951.71	1	100	1000	0	0
047	1	41	?	P	f	853.67	NA	7	24	2	56	i	n	901.33	1	100	1000	0	0
047	1	42	?	P	f	753.65	NA	3	56	8	24	i	j	936.96	1	100	100	0	0
047	1	43	?	P	f	369.84	NA	2	24	7	56	c	n	553.17	1	1000	100	0	0
047	1	44	?	N	d	1503.98	NA	3	24	8	56	c	n	820.27	1	100	1000	0	0
047	1	45	?	N	d	1087.4	NA	2	24	8	56	c	n	635.8	1	100	100	0	0
047	1	46	?	N	d	1454.26	NA	3	56	9	24	i	n	1204.04	1	100	100	0	0
047	1	47	?	P	f	586.71	NA	7	24	4	56	i	n	1087.05	1	100	100	0	0
047	1	48	?	N	d	969.59	NA	2	24	8	56	c	n	1003.91	1	100	100	0	0
047	1	49	?	P	f	1053.87	NA	4	56	8	24	i	j	653.24	1	1000	1000	0	0
047	1	50	?	P	f	586.32	NA	9	56	2	24	c	j	503.35	1	100	100	0	0
047	1	51	?	P	f	2238.42	NA	3	24	7	56	c	n	520.24	1	100	1000	0	0
047	1	52	?	N	d	2.75	NA	8	56	4	24	c	j	1320.95	1	1000	1000	0	0
047	1	53	?	N	d	786.52	NA	2	24	9	56	c	n	637.26	1	100	100	0	0
047	1	54	?	N	d	469.89	NA	3	56	9	24	i	n	703.08	1	100	100	0	0
047	1	55	?	P	f	1002.12	NA	7	56	2	24	c	j	586.9	1	1000	100	0	0
047	1	56	?	P	f	367.81	NA	3	56	9	24	i	j	554.36	1	1000	100	0	0
047	1	57	?	P	f	102.75	NA	7	56	2	24	c	j	770.46	1	1000	100	0	0
047	1	58	?	N	d	819.61	NA	8	56	4	24	c	n	1070.71	0	100	1000	0	0
047	1	59	?	N	d	2.77	NA	8	24	2	56	i	j	1737.2	1	1000	100	0	1
047	1	60	?	N	d	319.74	NA	3	56	7	24	i	n	1270.35	1	1000	100	0	0
047	1	61	?	P	f	569.95	NA	2	56	8	24	i	j	1171.18	1	100	100	0	0
047	1	62	?	N	d	1420.66	NA	8	24	3	56	i	j	854.27	1	100	1000	0	0
047	1	63	?	N	d	386.68	NA	2	56	7	24	i	n	836.65	1	100	1000	0	0
047	1	64	?	P	f	717.64	NA	3	24	8	56	c	n	520.28	1	1000	1000	0	0
047	1	65	?	P	f	769.89	NA	4	24	9	56	c	n	435.76	1	100	1000	0	0
047	2	1	?	N	d	352.71	NA	2	56	8	24	i	n	920.55	1	1000	1000	-1	0
047	2	2	?	P	f	1037.15	NA	3	24	8	56	c	n	703.05	1	100	100	0	0
047	2	3	?	P	f	286.12	NA	7	56	2	24	c	j	552.39	1	1000	100	0	0
047	2	4	?	P	f	303.32	NA	9	24	4	56	i	n	1018.68	1	1000	1000	0	0
047	2	5	?	N	d	319.29	NA	3	56	7	24	i	n	570.09	1	1000	1000	0	0
047	2	6	?	N	d	603.43	NA	4	24	9	56	c	n	603.59	1	100	1000	0	0
047	2	7	?	P	f	286.74	NA	9	24	3	56	i	n	1621.03	1	1000	100	0	0
047	2	8	?	P	f	286.59	NA	9	24	4	56	i	n	536.31	1	1000	100	0	0
047	2	9	?	P	f	503.15	NA	3	24	7	56	c	n	386.89	1	100	1000	0	0
047	2	10	?	N	d	336.94	NA	2	24	8	56	c	n	787.05	1	100	100	0	0
047	2	11	?	N	d	319.6	NA	9	24	4	56	i	j	434.0	1	100	1000	0	0
047	2	12	?	N	d	386.46	NA	9	56	3	24	c	j	552.97	1	100	1000	0	0
047	2	13	?	N	d	654.05	NA	8	56	4	24	c	j	887.54	1	100	1000	0	0
047	2	14	?	P	f	1053.72	NA	8	24	3	56	i	n	1470.53	1	100	1000	0	0
047	2	15	?	P	f	352.91	NA	8	24	2	56	i	n	719.97	1	100	1000	0	0
047	2	16	?	P	f	836.81	NA	9	24	4	56	i	n	620.07	1	100	100	0	0
047	2	17	?	N	d	319.85	NA	8	56	2	24	c	j	736.2	1	100	100	0	0
047	2	18	?	P	f	453.01	NA	3	24	9	56	c	n	435.72	1	100	100	0	0
047	2	19	?	N	d	302.93	NA	4	56	8	24	i	n	1402.39	1	1000	1000	0	0
047	2	20	?	P	f	269.13	NA	2	24	8	56	c	n	503.05	1	1000	100	0	0
047	2	21	?	P	f	369.96	NA	9	24	3	56	i	n	570.13	1	1000	1000	0	0
047	2	22	?	N	d	302.0	NA	2	24	9	56	c	n	786.81	1	1000	1000	0	0
047	2	23	?	P	f	603.98	NA	7	24	4	56	i	n	903.91	1	100	100	0	0
047	2	24	?	N	d	436.65	NA	8	24	2	56	i	j	452.87	1	100	1000	0	0
047	2	25	?	N	d	669.76	NA	8	56	3	24	c	j	386.12	1	1000	1000	0	0
047	2	26	?	P	f	936.96	NA	4	24	7	56	c	n	1371.08	1	100	100	0	0
047	2	27	?	P	f	302.76	NA	2	56	9	24	i	j	670.12	1	1000	100	0	0
047	2	28	?	N	d	267.37	NA	3	24	7	56	c	n	851.12	1	1000	100	0	0
047	2	29	?	N	d	887.11	NA	9	24	4	56	i	j	1220.28	1	1000	100	0	0
047	2	30	?	P	f	285.88	NA	3	56	7	24	i	j	1253.78	1	1000	1000	0	0
047	2	31	?	P	f	302.63	NA	8	56	4	24	c	j	386.21	1	1000	1000	0	0
047	2	32	?	P	f	603.33	NA	2	24	8	56	c	n	386.46	1	100	1000	0	0
047	2	33	?	N	d	252.06	NA	9	24	4	56	i	j	1004.21	1	1000	1000	0	0
047	2	34	?	N	d	386.23	NA	7	56	2	24	c	j	486.62	1	100	100	0	0
047	2	35	?	N	d	519.47	NA	4	56	8	24	i	j	569.77	0	1000	100	0	0
047	2	36	?	N	d	820.07	NA	7	56	2	24	c	j	720.18	1	100	100	0	1
047	2	37	?	P	f	436.38	NA	7	24	4	56	i	n	903.24	1	100	100	0	0
047	2	38	?	P	f	1354.32	NA	3	56	9	24	i	j	1905.11	1	100	100	0	0
047	2	39	?	N	d	136.21	NA	2	24	8	56	c	n	1202.18	1	1000	1000	0	0
047	2	40	?	P	f	336.47	NA	7	56	4	24	c	j	553.14	1	1000	1000	0	0
047	2	41	?	P	f	269.49	NA	8	56	2	24	c	j	487.11	1	1000	100	0	0
047	2	42	?	N	d	384.15	NA	8	24	4	56	i	j	1821.22	1	1000	1000	0	0
047	2	43	?	N	d	502.62	NA	3	24	9	56	c	n	736.84	1	100	1000	0	0
047	2	44	?	P	f	386.08	NA	2	56	8	24	i	j	1069.72	1	100	100	0	0
047	2	45	?	P	f	603.3	NA	7	56	4	24	c	j	419.98	1	100	1000	0	0
047	2	46	?	P	f	702.84	NA	7	56	2	24	c	j	468.98	1	100	100	0	0
047	2	47	?	P	f	319.05	NA	3	24	8	56	c	n	669.91	1	1000	100	0	0
047	2	48	?	N	d	701.35	NA	9	56	2	24	c	j	734.43	1	100	1000	0	0
047	2	49	?	N	d	286.48	NA	8	24	4	56	i	j	803.3	1	1000	100	0	0
047	2	50	?	P	f	402.7	NA	2	56	9	24	i	j	903.79	1	100	100	0	0
047	2	51	?	N	d	335.92	NA	3	56	7	24	i	n	1154.65	1	1000	100	0	0
047	2	52	?	N	d	603.37	NA	4	56	8	24	i	n	786.53	1	100	1000	0	0
047	2	53	?	N	d	1570.8	NA	9	24	2	56	i	j	503.51	1	100	1000	0	0
047	2	54	?	P	f	436.52	NA	4	56	7	24	i	j	786.73	1	100	100	0	0
047	2	55	?	P	f	303.05	NA	3	24	7	56	c	n	619.46	1	1000	1000	0	0
047	2	56	?	P	f	386.26	NA	2	56	7	24	i	j	600.19	1	100	1000	0	0
047	2	57	?	N	d	369.27	NA	8	56	3	24	c	j	870.12	1	1000	100	0	0
047	2	58	?	N	d	303.08	NA	9	24	2	56	i	j	770.42	1	1000	100	0	0
047	2	59	?	P	f	269.71	NA	9	56	4	24	c	j	836.0	1	1000	1000	0	0
047	2	60	?	P	f	703.33	NA	9	24	2	56	i	n	667.45	1	100	100	0	0
047	2	61	?	P	f	268.97	NA	7	56	3	24	c	j	435.66	1	1000	100	0	0
047	2	62	?	N	d	369.15	NA	7	24	4	56	i	j	1270.23	1	1000	1000	0	0
047	2	63	?	N	d	286.06	NA	3	24	9	56	c	n	1187.38	1	1000	100	0	0
047	2	64	?	N	d	452.97	NA	4	56	8	24	i	n	1769.32	1	100	1000	0	0
047	2	65	?	N	d	334.15	NA	3	24	8	56	c	n	619.39	1	1000	1000	0	0
047	3	1	?	N	d	1754.25	NA	7	56	3	24	c	j	1237.2	1	1000	100	-1	0
047	3	2	?	N	d	269.17	NA	9	56	2	24	c	j	620.22	1	100	100	0	0
047	3	3	?	N	d	336.2	NA	7	24	4	56	i	j	669.76	1	100	100	0	0
047	3	4	?	P	f	186.04	NA	2	24	8	56	c	n	369.94	1	1000	1000	0	0
047	3	5	?	P	f	69.4	NA	4	56	8	24	i	j	969.87	1	1000	1000	0	0
047	3	6	?	N	d	269.23	NA	3	24	9	56	c	n	736.49	1	1000	100	0	0
047	3	7	?	P	f	252.72	NA	2	56	8	24	i	j	770.6	1	1000	100	0	0
047	3	8	?	P	f	403.01	NA	7	24	3	56	i	n	569.67	1	100	100	0	0
047	3	9	?	P	f	286.1	NA	7	56	4	24	c	j	619.23	1	1000	100	0	0
047	3	10	?	N	d	403.21	NA	3	24	8	56	c	n	769.97	1	100	1000	0	0
047	3	11	?	N	d	669.63	NA	8	56	4	24	c	j	435.61	1	100	1000	0	0
047	3	12	?	N	d	386.52	NA	2	56	8	24	i	j	670.02	0	1000	1000	0	0
047	3	13	?	N	d	420.01	NA	7	56	3	24	c	j	569.46	1	1000	100	0	1
047	3	14	?	P	f	168.91	NA	9	56	4	24	c	j	936.81	1	1000	100	0	0
047	3	15	?	P	f	1186.83	NA	8	56	2	24	c	j	469.73	1	100	100	0	0
047	3	16	?	P	f	385.72	NA	9	24	3	56	i	n	1638.01	1	1000	100	0	0
047	3	17	?	N	d	152.57	NA	4	56	8	24	i	n	653.94	1	1000	1000	0	0
047	3	18	?	N	d	252.94	NA	2	56	9	24	i	n	620.14	1	1000	1000	0	0
047	3	19	?	P	f	319.38	NA	3	24	9	56	c	n	717.47	1	1000	100	0	0
047	3	20	?	P	f	352.94	NA	4	24	7	56	c	n	569.39	1	100	1000	0	0
047	3	21	?	N	d	352.54	NA	9	24	2	56	i	j	936.78	1	1000	100	0	0
047	3	22	?	N	d	286.29	NA	8	24	4	56	i	j	853.26	1	1000	1000	0	0
047	3	23	?	P	f	436.48	NA	3	24	9	56	c	n	686.99	1	1000	100	0	0
047	3	24	?	P	f	186.17	NA	8	24	4	56	i	n	519.54	1	1000	1000	0	0
047	3	25	?	P	f	586.67	NA	7	24	2	56	i	n	567.82	1	100	1000	0	0
047	3	26	?	P	f	1937.9	NA	7	56	4	24	c	j	486.25	1	100	1000	0	0
047	3	27	?	N	d	202.32	NA	9	56	3	24	c	j	653.41	1	1000	100	0	0
047	3	28	?	N	d	702.93	NA	8	24	2	56	i	j	853.68	1	100	1000	0	0
047	3	29	?	N	d	336.19	NA	7	56	3	24	c	n	686.45	0	100	1000	0	0
047	3	30	?	N	d	753.33	NA	9	24	4	56	i	j	752.73	1	100	1000	0	1
047	3	31	?	N	d	953.8	NA	3	24	8	56	c	n	837.16	1	100	1000	0	0
047	3	32	?	P	f	903.49	NA	8	24	4	56	i	n	736.75	1	100	100	0	0
047	3	33	?	P	f	236.27	NA	2	24	9	56	c	n	486.96	1	1000	1000	0	0
047	3	34	?	P	f	1219.45	NA	4	56	7	24	i	j	820.41	1	100	100	0	0
047	3	35	?	P	f	236.66	NA	3	24	7	56	c	n	535.59	1	1000	1000	0	0
047	3	36	?	P	f	152.78	NA	8	56	2	24	c	j	503.21	1	1000	1000	0	0
047	3	37	?	P	f	317.55	NA	3	24	8	56	c	n	770.53	1	1000	100	0	0
047	3	38	?	N	d	519.88	NA	8	24	2	56	i	j	586.38	1	100	100	0	0
047	3	39	?	N	d	319.23	NA	8	56	4	24	c	j	586.08	1	100	1000	0	0
047	3	40	?	N	d	419.43	NA	7	56	3	24	c	j	553.32	1	100	100	0	0
047	3	41	?	P	f	269.78	NA	9	24	2	56	i	n	587.0	1	100	1000	0	0
047	3	42	?	P	f	302.21	NA	4	24	9	56	c	n	552.84	1	100	100	0	0
047	3	43	?	N	d	285.8	NA	3	56	8	24	i	n	720.41	1	100	1000	0	0
047	3	44	?	N	d	335.81	NA	4	24	7	56	c	n	653.13	1	100	100	0	0
047	3	45	?	P	f	185.95	NA	7	24	2	56	i	n	1837.73	1	100	100	0	0
047	3	46	?	N	d	52.18	NA	7	56	4	24	c	j	519.75	1	1000	1000	0	0
047	3	47	?	P	f	250.79	NA	2	24	8	56	c	n	553.57	1	1000	1000	0	0
047	3	48	?	P	f	303.4	NA	7	24	3	56	i	n	1321.0	1	1000	100	0	0
047	3	49	?	P	f	519.94	NA	8	24	4	56	i	n	787.59	1	100	100	0	0
047	3	50	?	P	f	400.96	NA	3	56	9	24	i	j	804.13	1	100	1000	0	0
047	3	51	?	P	f	18.84	NA	9	24	4	56	i	n	736.37	1	1000	100	0	0
047	3	52	?	N	d	236.34	NA	9	24	3	56	i	j	617.39	1	1000	1000	0	0
047	3	53	?	N	d	52.81	NA	8	56	2	24	c	j	636.83	1	1000	1000	0	0
047	3	54	?	P	f	452.91	NA	3	56	8	24	i	j	1137.74	1	1000	1000	0	0
047	3	55	?	P	f	586.85	NA	2	56	8	24	i	j	1020.28	1	100	1000	0	0
047	3	56	?	N	d	286.39	NA	8	56	4	24	c	j	537.01	1	100	100	0	0
047	3	57	?	N	d	1185.1	NA	2	56	8	24	i	n	1137.26	1	100	1000	0	0
047	3	58	?	N	d	2405.24	NA	4	24	7	56	c	n	652.99	1	100	100	0	0
047	3	59	?	N	d	336.18	NA	7	24	2	56	i	j	767.77	1	100	100	0	0
047	3	60	?	N	d	669.99	NA	4	24	9	56	c	n	519.17	1	100	100	0	0
047	3	61	?	N	d	369.26	NA	9	56	2	24	c	j	586.41	1	1000	1000	0	0
047	3	62	?	P	f	469.64	NA	3	24	8	56	c	n	419.4	1	100	1000	0	0
047	3	63	?	P	f	286.01	NA	8	24	4	56	i	j	686.39	0	1000	100	0	0
047	3	64	?	P	f	486.04	NA	3	56	8	24	i	j	719.73	1	1000	100	0	1
047	3	65	?	P	f	319.57	NA	4	56	7	24	i	j	770.4	1	1000	100	0	0
047	4	1	?	P	f	654.02	NA	2	24	8	56	c	n	553.14	1	100	1000	-1	0
047	4	2	?	N	d	336.49	NA	4	56	7	24	i	j	569.87	0	100	100	0	0
047	4	3	?	N	d	1504.4	NA	7	24	2	56	i	j	786.52	1	100	100	0	1
047	4	4	?	N	d	369.68	NA	9	24	3	56	i	j	1019.66	1	100	1000	0	0
047	4	5	?	P	f	267.36	NA	7	24	2	56	i	n	936.93	1	100	100	0	0
047	4	6	?	P	f	486.27	NA	7	24	3	56	i	n	569.38	1	1000	100	0	0
047	4	7	?	P	f	400.81	NA	9	24	4	56	i	n	670.07	1	1000	1000	0	0
047	4	8	?	N	d	302.98	NA	9	24	2	56	i	j	819.81	1	100	100	0	0
047	4	9	?	N	d	319.06	NA	4	24	9	56	c	n	803.25	1	100	100	0	0
047	4	10	?	N	d	386.32	NA	7	56	2	24	c	j	520.22	1	100	100	0	0
047	4	11	?	P	f	169.31	NA	7	24	3	56	i	n	1053.42	1	1000	100	0	0
047	4	12	?	P	f	319.55	NA	7	56	2	24	c	j	536.44	1	100	1000	0	0
047	4	13	?	P	f	2.63	NA	8	56	4	24	c	j	736.88	1	1000	100	0	0
047	4	14	?	P	f	386.39	NA	7	24	2	56	i	n	584.58	1	100	100	0	0
047	4	15	?	P	f	301.0	NA	4	56	8	24	i	j	620.02	1	100	1000	0	0
047	4	16	?	N	d	352.99	NA	8	56	2	24	c	j	1136.75	1	1000	100	0	0
047	4	17	?	N	d	202.87	NA	9	56	3	24	c	j	469.18	1	100	100	0	0
047	4	18	?	N	d	336.05	NA	9	56	4	24	c	j	485.93	1	1000	1000	0	0
047	4	19	?	P	f	436.12	NA	9	56	3	24	c	j	953.14	1	100	1000	0	0
047	4	20	?	N	d	369.57	NA	9	24	2	56	i	j	552.94	1	100	1000	0	0
047	4	21	?	N	d	670.16	NA	7	56	4	24	c	j	570.54	1	1000	1000	0	0
047	4	22	?	P	f	502.66	NA	7	56	2	24	c	j	436.19	1	1000	100	0	0
047	4	23	?	P	f	370.5	NA	8	56	4	24	c	j	436.75	1	100	100	0	0
047	4	24	?	N	d	369.8	NA	2	24	9	56	c	n	1203.26	1	1000	1000	0	0
047	4	25	?	N	d	435.97	NA	7	24	4	56	i	j	617.95	1	100	100	0	0
047	4	26	?	N	d	669.92	NA	3	56	8	24	i	n	619.85	1	100	1000	0	0
047	4	27	?	P	f	503.38	NA	8	24	2	56	i	n	953.54	1	100	1000	0	0
047	4	28	?	P	f	235.91	NA	3	24	8	56	c	n	536.36	1	100	1000	0	0
047	4	29	?	N	d	69.21	NA	4	24	9	56	c	n	686.76	1	1000	1000	0	0
047	4	30	?	N	d	102.75	NA	3	24	8	56	c	n	537.06	1	1000	100	0	0
047	4	31	?	P	f	303.02	NA	4	56	9	24	i	j	818.13	1	1000	100	0	0
047	4	32	?	P	f	319.27	NA	2	24	7	56	c	n	553.1	1	100	1000	0	0
047	4	33	?	P	f	2.71	NA	3	56	9	24	i	j	619.73	1	1000	100	0	0
047	4	34	?	N	d	369.79	NA	2	24	7	56	c	n	869.65	1	1000	100	0	0
047	4	35	?	N	d	369.51	NA	8	24	3	56	i	j	686.63	1	1000	1000	0	0
047	4	36	?	P	f	434.21	NA	9	24	4	56	i	n	1134.81	1	1000	1000	0	0
047	4	37	?	N	d	435.75	NA	2	24	9	56	c	n	586.49	1	100	100	0	0
047	4	38	?	P	f	119.35	NA	9	24	3	56	i	j	669.55	0	1000	1000	0	0
047	4	39	?	N	d	469.88	NA	8	24	4	56	i	j	1187.54	1	1000	100	0	1
047	4	40	?	N	d	869.49	NA	8	24	2	56	i	j	703.29	1	100	1000	0	0
047	4	41	?	P	f	585.84	NA	3	56	7	24	i	j	703.17	1	1000	1000	0	0
047	4	42	?	P	f	553.57	NA	2	24	8	56	c	n	503.29	1	100	100	0	0
047	4	43	?	P	f	319.71	NA	8	56	3	24	c	j	486.75	1	1000	100	0	0
047	4	44	?	N	d	419.77	NA	8	56	2	24	c	j	1120.62	1	100	1000	0	0
047	4	45	?	N	d	267.57	NA	7	24	4	56	i	j	636.78	1	100	100	0	0
047	4	46	?	N	d	319.44	NA	2	56	8	24	i	n	653.33	1	100	1000	0	0
047	4	47	?	N	d	403.13	NA	8	56	3	24	c	j	970.86	1	1000	1000	0	0
047	4	48	?	P	f	286.17	NA	7	24	2	56	i	n	586.2	1	1000	100	0	0
047	4	49	?	P	f	653.12	NA	3	56	7	24	i	j	502.86	1	1000	1000	0	0
047	4	50	?	P	f	452.67	NA	7	56	2	24	c	j	553.33	1	100	100	0	0
047	4	51	?	N	d	936.32	NA	7	56	3	24	c	j	503.15	1	100	1000	0	0
047	4	52	?	N	d	1154.15	NA	2	56	9	24	i	j	569.42	0	1000	1000	0	0
047	4	53	?	N	d	69.37	NA	4	24	7	56	c	n	736.39	1	1000	1000	0	1
047	4	54	?	P	f	269.42	NA	8	24	3	56	i	n	1304.4	1	1000	100	0	0
047	4	55	?	P	f	269.37	NA	4	24	7	56	c	n	453.13	1	1000	100	0	0
047	4	56	?	P	f	284.11	NA	2	56	7	24	i	j	736.11	1	1000	100	0	0
047	4	57	?	N	d	169.53	NA	4	24	7	56	c	n	786.74	1	1000	100	0	0
047	4	58	?	N	d	403.0	NA	2	24	8	56	c	n	603.66	1	100	1000	0	0
047	4	59	?	N	d	317.28	NA	3	24	9	56	c	n	552.53	1	1000	1000	0	0
047	4	60	?	N	d	1971.45	NA	2	56	9	24	i	n	1203.57	1	100	1000	0	0
047	4	61	?	P	f	202.87	NA	4	56	9	24	i	j	486.15	1	1000	1000	0	0
047	4	62	?	P	f	285.95	NA	7	56	3	24	c	j	469.69	1	1000	1000	0	0
047	4	63	?	P	f	485.73	NA	7	24	2	56	i	n	586.03	1	100	100	0	0
047	4	64	?	P	f	953.4	NA	3	24	8	56	c	n	1320.46	1	100	1000	0	0
047	4	65	?	N	d	436.11	NA	2	24	8	56	c	n	603.3	1	100	100	0	0
047	5	1	?	N	d	670.25	NA	9	56	3	24	c	j	736.47	1	100	1000	-1	0
047	5	2	?	N	d	286.1	NA	8	56	2	24	c	j	485.88	1	100	1000	0	0
047	5	3	?	N	d	418.77	NA	3	56	7	24	i	n	953.6	1	100	100	0	0
047	5	4	?	P	f	953.71	NA	4	24	9	56	c	n	554.46	1	100	1000	0	0
047	5	5	?	P	f	419.7	NA	8	24	2	56	i	n	686.61	1	1000	100	0	0
047	5	6	?	N	d	250.7	NA	3	24	9	56	c	n	970.34	1	1000	100	0	0
047	5	7	?	P	f	434.25	NA	2	56	8	24	i	j	753.65	1	1000	1000	0	0
047	5	8	?	P	f	486.31	NA	3	24	7	56	c	n	618.32	1	100	100	0	0
047	5	9	?	P	f	285.82	NA	2	24	9	56	c	n	619.65	1	100	1000	0	0
047	5	10	?	N	d	136.05	NA	8	56	3	24	c	j	453.52	1	1000	1000	0	0
047	5	11	?	N	d	419.52	NA	4	24	7	56	c	n	569.8	1	100	1000	0	0
047	5	12	?	P	f	419.96	NA	7	56	3	24	c	j	419.84	1	100	1000	0	0
047	5	13	?	N	d	52.26	NA	2	56	8	24	i	n	901.33	1	1000	100	0	0
047	5	14	?	N	d	452.87	NA	3	24	8	56	c	n	469.25	1	1000	1000	0	0
047	5	15	?	N	d	83.66	NA	7	24	4	56	i	j	687.09	1	1000	1000	0	0
047	5	16	?	P	f	269.14	NA	7	24	2	56	i	n	586.47	1	1000	1000	0	0
047	5	17	?	P	f	185.28	NA	3	24	8	56	c	n	453.35	1	1000	1000	0	0
047	5	18	?	P	f	937.32	NA	8	24	4	56	i	n	903.42	1	100	100	0	0
047	5	19	?	P	f	1470.87	NA	8	56	2	24	c	j	586.44	1	100	100	0	0
047	5	20	?	P	f	1804.53	NA	3	24	9	56	c	n	686.24	1	1000	100	0	0
047	5	21	?	N	d	1287.41	NA	2	24	8	56	c	n	903.41	1	100	100	0	0
047	5	22	?	N	d	369.6	NA	4	24	9	56	c	n	552.91	1	100	100	0	0
047	5	23	?	N	d	519.74	NA	3	56	9	24	i	n	736.74	1	100	1000	0	0
047	5	24	?	N	d	336.38	NA	2	56	8	24	i	n	552.9	1	1000	1000	0	0
047	5	25	?	P	f	36.02	NA	4	56	9	24	i	j	1086.5	1	1000	1000	0	0
047	5	26	?	P	f	486.48	NA	2	56	9	24	i	j	417.33	1	100	1000	0	0
047	5	27	?	P	f	450.68	NA	8	24	3	56	i	n	837.0	1	100	1000	0	0
047	5	28	?	N	d	136.12	NA	7	24	2	56	i	j	903.64	1	1000	100	0	0
047	5	29	?	N	d	386.25	NA	4	56	8	24	i	n	586.53	1	100	1000	0	0
047	5	30	?	P	f	403.22	NA	2	56	9	24	i	j	870.62	1	100	100	0	0
047	5	31	?	P	f	252.71	NA	8	24	4	56	i	n	1004.39	1	1000	1000	0	0
047	5	32	?	P	f	19.1	NA	9	56	3	24	c	j	403.63	1	1000	1000	0	0
047	5	33	?	P	f	203.05	NA	4	56	7	24	i	j	651.59	1	1000	100	0	0
047	5	34	?	P	f	419.52	NA	3	56	9	24	i	j	536.37	1	1000	100	0	0
047	5	35	?	P	f	252.31	NA	9	24	2	56	i	n	421.29	1	1000	1000	0	0
047	5	36	?	N	d	403.61	NA	8	56	3	24	c	j	619.33	1	100	100	0	0
047	5	37	?	N	d	319.35	NA	7	24	2	56	i	j	717.63	1	100	100	0	0
047	5	38	?	N	d	569.86	NA	9	56	3	24	c	j	669.73	1	1000	100	0	0
047	5	39	?	N	d	269.48	NA	7	56	4	24	c	j	386.39	1	1000	1000	0	0
047	5	40	?	P	f	703.72	NA	8	56	3	24	c	j	520.56	1	100	100	0	0
047	5	41	?	P	f	352.72	NA	4	24	9	56	c	n	486.47	1	100	100	0	0
047	5	42	?	P	f	285.52	NA	2	24	9	56	c	n	419.49	1	100	1000	0	0
047	5	43	?	P	f	669.98	NA	7	56	4	24	c	j	503.24	1	1000	100	0	0
047	5	44	?	N	d	252.26	NA	7	56	3	24	c	j	702.77	1	1000	100	0	0
047	5	45	?	N	d	385.95	NA	9	56	4	24	c	j	420.73	1	100	100	0	0
047	5	46	?	N	d	236.01	NA	7	24	3	56	i	j	668.95	1	100	1000	0	0
047	5	47	?	P	f	102.03	NA	9	56	4	24	c	j	453.23	1	1000	1000	0	0
047	5	48	?	P	f	36.28	NA	3	56	7	24	i	j	870.59	1	1000	100	0	0
047	5	49	?	N	d	402.53	NA	8	24	2	56	i	j	753.2	1	100	100	0	0
047	5	50	?	P	f	285.75	NA	4	56	9	24	i	j	636.96	1	100	1000	0	0
047	5	51	?	P	f	336.3	NA	8	24	2	56	i	n	1303.79	1	100	1000	0	0
047	5	52	?	P	f	269.59	NA	4	56	8	24	i	j	586.12	1	100	100	0	0
047	5	53	?	P	f	302.72	NA	7	24	3	56	i	n	553.06	1	100	100	0	0
047	5	54	?	N	d	102.55	NA	4	56	8	24	i	n	769.89	1	1000	100	0	0
047	5	55	?	N	d	235.98	NA	3	24	7	56	c	n	452.65	1	1000	100	0	0
047	5	56	?	P	f	202.68	NA	7	56	2	24	c	j	503.49	1	1000	100	0	0
047	5	57	?	N	d	319.56	NA	3	56	8	24	i	n	803.52	1	1000	100	0	0
047	5	58	?	P	f	353.2	NA	4	56	9	24	i	j	669.94	1	100	1000	0	0
047	5	59	?	N	d	153.01	NA	7	24	2	56	i	j	553.66	1	1000	1000	0	0
047	5	60	?	N	d	352.94	NA	3	24	7	56	c	n	536.25	1	1000	1000	0	0
047	5	61	?	N	d	603.25	NA	9	56	4	24	c	j	703.26	1	100	1000	0	0
047	5	62	?	P	f	402.81	NA	7	56	3	24	c	j	402.97	1	100	1000	0	0
047	5	63	?	P	f	2.78	NA	2	24	9	56	c	n	553.16	1	1000	100	0	0
047	5	64	?	P	f	336.14	NA	9	24	3	56	i	n	1070.37	1	100	100	0	0
047	5	65	?	N	d	436.36	NA	2	24	7	56	c	j	820.27	0	1000	1000	0	0
047	6	1	?	N	d	202.89	NA	2	56	9	24	i	n	1287.18	1	1000	100	-1	0
047	6	2	?	P	f	19.38	NA	4	24	7	56	c	n	553.56	1	1000	1000	0	0
047	6	3	?	P	f	186.59	NA	2	56	8	24	i	j	1103.47	1	1000	1000	0	0
047	6	4	?	P	f	253.16	NA	3	24	9	56	c	n	452.85	1	1000	100	0	0
047	6	5	?	P	f	369.78	NA	4	56	7	24	i	j	719.79	1	1000	100	0	0
047	6	6	?	N	d	369.65	NA	3	24	8	56	c	n	720.04	1	100	100	0	0
047	6	7	?	N	d	302.71	NA	4	24	9	56	c	n	436.41	1	100	1000	0	0
047	6	8	?	N	d	285.8	NA	3	24	9	56	c	n	435.76	1	100	100	0	0
047	6	9	?	N	d	85.9	NA	4	56	7	24	i	n	788.15	1	1000	100	0	0
047	6	10	?	P	f	336.22	NA	9	56	3	24	c	j	803.32	1	100	100	0	0
047	6	11	?	P	f	436.46	NA	7	24	2	56	i	n	419.64	1	100	1000	0	0
047	6	12	?	N	d	252.81	NA	8	56	3	24	c	j	486.41	1	100	1000	0	0
047	6	13	?	N	d	202.19	NA	7	24	4	56	i	j	719.41	1	100	100	0	0
047	6	14	?	P	f	336.28	NA	8	24	3	56	i	n	1370.36	1	1000	1000	0	0
047	6	15	?	P	f	386.34	NA	2	56	9	24	i	j	686.71	1	100	1000	0	0
047	6	16	?	N	d	169.38	NA	4	56	9	24	i	n	1587.55	1	1000	100	0	0
047	6	17	?	P	f	286.87	NA	3	56	7	24	i	j	385.93	1	1000	1000	0	0
047	6	18	?	N	d	486.78	NA	2	24	8	56	c	n	837.64	1	100	100	0	0
047	6	19	?	P	f	119.27	NA	7	56	3	24	c	j	402.41	1	1000	100	0	0
047	6	20	?	P	f	235.31	NA	9	56	2	24	c	j	303.07	1	1000	1000	0	0
047	6	21	?	P	f	285.89	NA	3	24	7	56	c	n	787.37	1	1000	1000	0	0
047	6	22	?	N	d	353.14	NA	4	24	9	56	c	n	1154.55	1	1000	100	0	0
047	6	23	?	N	d	50.92	NA	2	56	7	24	i	j	502.61	0	1000	100	0	0
047	6	24	?	P	f	770.15	NA	9	24	4	56	i	n	1203.54	1	100	1000	0	1
047	6	25	?	P	f	352.95	NA	8	24	2	56	i	n	920.56	1	1000	100	0	0
047	6	26	?	N	d	419.8	NA	7	56	3	24	c	j	520.1	1	100	1000	0	0
047	6	27	?	P	f	302.86	NA	4	24	7	56	c	n	419.04	1	1000	100	0	0
047	6	28	?	N	d	353.0	NA	9	56	3	24	c	j	970.37	1	100	1000	0	0
047	6	29	?	P	f	286.49	NA	8	24	4	56	i	n	419.29	1	100	1000	0	0
047	6	30	?	N	d	285.54	NA	9	56	3	24	c	j	619.18	1	100	100	0	0
047	6	31	?	N	d	419.61	NA	2	24	9	56	c	n	619.92	1	1000	1000	0	0
047	6	32	?	N	d	1120.55	NA	8	56	4	24	c	j	636.51	1	100	1000	0	0
047	6	33	?	N	d	334.41	NA	7	24	3	56	i	j	687.23	1	100	100	0	0
047	6	34	?	N	d	36.24	NA	2	56	7	24	i	n	819.6	1	1000	1000	0	0
047	6	35	?	P	f	2.7	NA	8	56	3	24	c	j	620.27	1	1000	100	0	0
047	6	36	?	P	f	269.37	NA	2	56	9	24	i	n	804.18	0	1000	100	0	0
047	6	37	?	P	f	2.79	NA	7	56	4	24	c	j	570.04	1	1000	100	0	1
047	6	38	?	P	f	302.67	NA	9	56	2	24	c	j	554.07	1	1000	100	0	0
047	6	39	?	N	d	420.61	NA	3	56	7	24	i	n	670.72	1	100	1000	0	0
047	6	40	?	P	f	417.71	NA	9	56	4	24	c	j	553.19	1	100	100	0	0
047	6	41	?	P	f	352.68	NA	2	24	8	56	c	n	619.89	1	100	1000	0	0
047	6	42	?	N	d	502.97	NA	4	56	7	24	i	n	970.5	1	100	100	0	0
047	6	43	?	N	d	253.25	NA	7	24	3	56	i	n	1021.02	0	1000	1000	0	0
047	6	44	?	N	d	419.64	NA	7	24	2	56	i	j	637.05	1	1000	100	0	1
047	6	45	?	N	d	419.31	NA	7	24	3	56	i	j	1352.96	1	100	1000	0	0
047	6	46	?	N	d	369.12	NA	4	56	9	24	i	n	704.41	1	100	100	0	0
047	6	47	?	P	f	321.08	NA	2	56	8	24	i	j	870.3	1	100	100	0	0
047	6	48	?	P	f	336.3	NA	9	56	4	24	c	j	519.68	1	100	100	0	0
047	6	49	?	P	f	386.39	NA	2	56	7	24	i	j	536.71	1	100	100	0	0
047	6	50	?	P	f	318.95	NA	3	56	8	24	i	j	670.27	1	1000	100	0	0
047	6	51	?	N	d	286.41	NA	2	56	8	24	i	n	819.95	1	1000	1000	0	0
047	6	52	?	N	d	235.93	NA	3	56	7	24	i	n	501.28	1	100	100	0	0
047	6	53	?	N	d	152.93	NA	2	24	9	56	c	n	953.47	1	1000	1000	0	0
047	6	54	?	N	d	469.75	NA	3	56	9	24	i	j	652.99	0	100	100	0	0
047	6	55	?	P	f	19.3	NA	8	24	4	56	i	j	1154.01	0	1000	1000	0	1
047	6	56	?	P	f	803.18	NA	7	56	3	24	c	j	569.6	1	1000	1000	0	1
047	6	57	?	P	f	450.88	NA	4	24	7	56	c	n	519.88	1	100	100	0	0
047	6	58	?	P	f	369.75	NA	8	56	3	24	c	j	603.37	1	1000	1000	0	0
047	6	59	?	P	f	887.19	NA	2	24	8	56	c	n	652.51	1	100	1000	0	0
047	6	60	?	P	f	319.48	NA	4	56	8	24	i	j	769.68	1	1000	1000	0	0
047	6	61	?	N	d	186.42	NA	3	24	8	56	c	n	953.31	1	1000	100	0	0
047	6	62	?	N	d	303.11	NA	4	24	7	56	c	n	569.87	1	100	1000	0	0
047	6	63	?	N	d	469.79	NA	7	24	3	56	i	j	836.76	1	100	1000	0	0
047	6	64	?	N	d	217.3	NA	7	24	2	56	i	j	803.15	1	100	1000	0	0
047	6	65	?	N	d	286.23	NA	7	56	4	24	c	j	636.43	1	1000	1000	0	0
