subj	block	trial	task_cue	task	choice_resp	choiceRT	choice_acc	topnum	topsize	botnum	botsize	cong	task_resp	taskRT	task_acc	RSI	CSI	altRep	E1
058	1	1	P	P	f	686.52	1	9	24	3	56	i	n	719.23	1	1000	1000	-1	0
058	1	2	P	P	f	653.07	1	7	56	2	24	c	j	453.38	1	1000	1000	0	0
058	1	3	P	P	f	786.58	1	4	24	8	56	c	n	553.65	1	100	100	0	0
058	1	4	N	N	d	619.87	0	3	24	7	56	c	n	686.39	1	100	100	1	0
058	1	5	N	N	d	569.62	0	2	24	9	56	c	j	784.29	0	100	1000	0	0
058	1	6	P	P	f	936.74	1	7	24	4	56	i	n	1036.78	1	100	100	1	1
058	1	7	P	P	f	869.96	1	7	24	2	56	i	n	937.24	1	1000	1000	0	0
058	1	8	N	N	d	452.57	0	7	24	3	56	i	j	686.09	1	1000	1000	1	0
058	1	9	P	P	f	919.22	1	4	24	9	56	c	n	1137.66	1	1000	100	1	0
058	1	10	N	N	d	652.68	0	7	56	3	24	c	j	719.65	1	100	1000	1	0
058	1	11	N	N	d	619.26	0	8	24	4	56	i	n	1854.74	0	1000	1000	0	0
058	1	12	N	N	d	536.05	0	2	56	9	24	i	j	1020.47	0	1000	100	0	1
058	1	13	N	N	d	536.17	0	9	56	4	24	c	j	2421.81	1	1000	100	0	1
058	1	14	P	P	f	669.62	1	3	24	7	56	c	n	719.6	1	1000	1000	1	0
058	1	15	N	N	d	586.02	0	8	24	2	56	i	j	2054.67	1	1000	100	1	0
058	1	16	P	P	f	603.17	1	9	56	3	24	c	j	569.54	1	100	100	1	0
058	1	17	P	P	f	536.27	1	4	24	9	56	c	n	453.37	1	100	1000	0	0
058	1	18	P	P	f	619.61	1	8	24	3	56	i	n	719.63	1	100	100	0	0
058	1	19	N	N	d	753.15	0	4	24	9	56	c	n	1137.2	1	1000	100	1	0
058	1	20	P	P	f	452.84	1	7	56	3	24	c	j	435.69	1	1000	1000	1	0
058	1	21	N	N	d	436.3	0	9	56	2	24	c	j	720.0	1	1000	100	1	0
058	1	22	P	P	f	636.48	1	4	24	7	56	c	n	736.23	1	100	100	1	0
058	1	23	N	N	d	670.09	0	7	56	3	24	c	j	619.62	1	100	100	1	0
058	1	24	P	P	f	569.21	1	2	56	7	24	i	j	1353.02	1	100	100	1	0
058	1	25	N	N	d	719.84	0	3	24	8	56	c	n	1437.88	1	100	1000	1	0
058	1	26	P	P	f	502.73	1	2	56	7	24	i	j	1354.37	1	1000	100	1	0
058	1	27	P	P	f	536.65	1	4	56	8	24	i	j	552.8	1	100	100	0	0
058	1	28	P	P	f	786.59	1	3	24	8	56	c	n	552.5	1	1000	100	0	0
058	1	29	P	P	f	419.25	1	4	24	8	56	c	n	436.19	1	1000	1000	0	0
058	1	30	P	P	f	402.74	1	8	56	2	24	c	j	436.07	1	100	100	0	0
058	1	31	N	N	d	336.1	0	3	56	9	24	i	n	752.98	1	1000	1000	1	0
058	1	32	P	P	f	720.14	1	7	24	4	56	i	n	770.23	1	1000	100	1	0
058	1	33	N	N	d	469.17	0	7	24	3	56	i	j	769.91	1	100	1000	1	0
058	1	34	N	N	d	732.9	0	4	56	9	24	i	n	654.1	1	100	100	0	0
058	1	35	N	N	d	469.32	0	2	24	7	56	c	n	602.53	1	1000	1000	0	0
058	1	36	P	P	f	402.76	1	4	56	7	24	i	j	419.45	1	1000	1000	1	0
058	1	37	P	P	f	435.9	1	2	56	8	24	i	j	553.03	1	1000	1000	0	0
058	1	38	P	P	f	587.23	1	8	56	3	24	c	j	586.26	1	100	1000	0	0
058	1	39	P	P	f	385.97	1	4	56	7	24	i	j	436.81	1	100	1000	0	0
058	1	40	P	P	f	352.4	1	8	56	3	24	c	j	503.2	1	1000	100	0	0
058	1	41	N	N	d	852.71	0	9	56	4	24	c	j	887.05	1	1000	1000	1	0
058	1	42	N	N	d	569.18	0	8	24	2	56	i	j	1270.18	1	100	1000	0	0
058	1	43	N	N	d	502.56	0	9	56	4	24	c	j	786.82	1	1000	1000	0	0
058	1	44	N	N	d	2037.8	0	8	56	3	24	c	j	635.53	1	100	1000	0	0
058	1	45	N	N	d	552.76	0	7	24	2	56	i	j	920.15	1	1000	100	0	0
058	1	46	N	N	d	1453.9	0	3	24	9	56	c	n	2038.5	1	1000	100	0	0
058	1	47	N	N	d	936.75	0	2	24	8	56	c	n	603.12	1	100	100	0	0
058	1	48	N	N	d	635.79	0	4	56	8	24	i	n	1271.09	1	1000	1000	0	0
058	1	49	N	N	d	452.91	0	7	56	3	24	c	j	636.41	1	100	100	0	0
058	1	50	P	P	d	352.13	1	4	24	7	56	c	n	1438.31	1	100	1000	1	0
058	1	51	N	N	d	1253.32	0	7	24	3	56	i	j	703.79	1	100	100	1	0
058	1	52	P	P	f	486.02	1	8	24	2	56	i	n	1270.46	1	100	1000	1	0
058	1	53	P	P	f	469.59	1	3	56	8	24	i	j	953.35	1	1000	100	0	0
058	1	54	N	N	d	736.68	0	2	56	7	24	i	n	1237.7	1	100	1000	1	0
058	1	55	P	P	f	586.61	1	8	56	3	24	c	j	519.4	1	1000	100	1	0
058	1	56	N	N	d	553.17	0	4	24	7	56	c	n	1404.58	1	1000	1000	1	0
058	1	57	P	P	d	386.29	1	7	56	3	24	c	j	1318.4	1	100	1000	1	0
058	1	58	P	P	f	803.27	1	9	24	2	56	i	n	1287.12	1	100	1000	0	0
058	1	59	N	N	d	653.23	0	3	56	7	24	i	n	2070.92	1	100	100	1	0
058	1	60	P	P	f	569.7	1	9	24	2	56	i	n	636.76	1	1000	1000	1	0
058	1	61	N	N	d	519.68	0	4	56	8	24	i	n	1086.86	1	1000	100	1	0
058	1	62	N	N	f	619.65	0	8	24	3	56	i	n	3105.84	0	100	100	0	0
058	1	63	N	N	d	835.79	0	2	56	7	24	i	n	1888.51	1	100	1000	0	1
058	1	64	P	P	f	1137.23	1	4	56	8	24	i	j	2288.94	1	100	1000	1	0
058	1	65	P	P	f	953.68	1	7	24	2	56	i	n	819.28	1	1000	100	0	0
058	2	1	P	P	f	1169.88	1	9	24	3	56	i	n	1604.37	1	100	100	-1	0
058	2	2	P	P	f	619.56	1	9	56	2	24	c	j	536.38	1	100	1000	0	0
058	2	3	P	P	f	469.11	1	7	56	3	24	c	j	567.43	1	1000	100	0	0
058	2	4	P	P	f	1287.49	1	9	24	2	56	i	n	569.82	1	1000	100	0	0
058	2	5	N	N	d	636.39	0	9	56	3	24	c	j	954.05	1	1000	1000	1	0
058	2	6	P	P	f	653.06	1	9	24	4	56	i	n	586.55	1	100	1000	1	0
058	2	7	N	N	d	1020.31	0	3	56	9	24	i	n	520.28	1	1000	1000	1	0
058	2	8	P	P	f	619.92	1	4	56	9	24	i	j	987.43	1	100	1000	1	0
058	2	9	N	N	d	369.54	0	7	24	2	56	i	j	953.78	1	1000	1000	1	0
058	2	10	N	N	d	801.13	0	3	24	7	56	c	n	1103.61	1	1000	100	0	0
058	2	11	N	N	d	569.59	0	8	24	4	56	i	j	987.01	1	100	100	0	0
058	2	12	N	N	d	736.08	0	3	56	7	24	i	n	1202.5	1	1000	100	0	0
058	2	13	P	P	f	637.26	1	8	24	2	56	i	n	1270.91	1	100	100	1	0
058	2	14	N	N	d	503.19	0	7	24	3	56	i	j	2305.05	1	100	1000	1	0
058	2	15	N	N	d	603.02	0	4	56	9	24	i	n	2038.17	1	100	100	0	0
058	2	16	P	P	f	517.8	1	3	24	7	56	c	n	1001.45	1	100	1000	1	0
058	2	17	P	P	f	469.61	1	4	56	8	24	i	j	486.46	1	100	100	0	0
058	2	18	P	P	f	618.8	1	2	24	9	56	c	n	536.2	1	1000	1000	0	0
058	2	19	P	P	f	753.06	1	7	24	4	56	i	n	669.58	1	100	100	0	0
058	2	20	N	N	d	736.41	0	7	56	3	24	c	j	1418.81	1	100	1000	1	0
058	2	21	N	N	d	1119.84	0	7	24	2	56	i	j	1020.26	1	1000	100	0	0
058	2	22	N	N	d	653.05	0	7	56	4	24	c	j	685.65	1	1000	100	0	0
058	2	23	P	P	f	569.45	1	3	24	7	56	c	n	553.05	1	1000	1000	1	0
058	2	24	P	P	f	486.2	1	2	24	7	56	c	n	570.33	1	1000	100	0	0
058	2	25	N	N	d	586.59	0	3	56	8	24	i	n	1785.99	1	100	1000	1	0
058	2	26	N	N	d	469.62	0	9	56	4	24	c	j	1036.53	1	100	1000	0	0
058	2	27	N	N	d	452.57	0	8	24	2	56	i	j	686.63	1	100	1000	0	0
058	2	28	P	P	f	702.81	1	4	24	9	56	c	n	770.42	1	1000	100	1	0
058	2	29	N	N	d	803.53	0	8	24	3	56	i	j	1303.6	1	1000	100	1	0
058	2	30	N	N	d	569.69	0	2	24	7	56	c	n	1003.97	1	100	100	0	0
058	2	31	P	P	f	619.59	1	7	24	4	56	i	n	503.26	1	1000	1000	1	0
058	2	32	P	P	f	452.78	1	8	56	3	24	c	j	636.18	1	1000	1000	0	0
058	2	33	N	N	d	736.46	0	8	56	2	24	c	j	2670.5	1	100	100	1	0
058	2	34	P	P	f	953.47	1	3	56	8	24	i	j	903.11	1	1000	1000	1	0
058	2	35	P	P	f	469.41	1	4	56	9	24	i	j	653.06	1	1000	100	0	0
058	2	36	N	N	f	920.98	0	2	56	8	24	i	n	2055.3	1	100	100	1	0
058	2	37	N	N	d	669.84	0	4	24	8	56	c	n	3372.49	1	1000	1000	0	0
058	2	38	N	N	d	869.68	0	9	56	2	24	c	j	619.59	1	100	100	0	0
058	2	39	N	N	d	519.95	0	3	24	8	56	c	n	670.19	1	100	1000	0	0
058	2	40	P	P	f	1103.55	1	8	56	2	24	c	j	1621.4	1	1000	1000	1	0
058	2	41	P	P	f	468.79	1	4	24	8	56	c	n	836.99	1	100	100	0	0
058	2	42	P	P	f	636.44	1	2	56	9	24	i	j	502.57	1	100	1000	0	0
058	2	43	P	P	f	503.22	1	7	56	4	24	c	j	686.27	1	100	100	0	0
058	2	44	N	N	d	419.42	0	7	56	2	24	c	j	636.07	1	1000	100	1	0
058	2	45	P	P	d	369.62	1	9	56	3	24	c	j	1203.32	1	100	1000	1	0
058	2	46	N	N	d	1721.09	0	4	56	9	24	i	n	753.24	1	1000	100	1	0
058	2	47	N	N	d	552.87	0	8	24	3	56	i	j	1504.36	1	1000	1000	0	0
058	2	48	P	P	f	1136.5	1	7	24	2	56	i	n	1571.18	1	1000	100	1	0
058	2	49	N	N	d	535.63	0	4	24	7	56	c	n	902.96	1	1000	1000	1	0
058	2	50	N	N	d	2438.34	0	2	56	7	24	i	n	2004.91	1	100	1000	0	0
058	2	51	P	P	f	786.85	1	4	56	8	24	i	j	4441.06	1	1000	100	1	0
058	2	52	N	N	d	536.01	0	2	24	7	56	c	n	535.78	1	100	1000	1	0
058	2	53	N	N	d	736.24	0	3	56	8	24	i	n	1837.48	1	1000	1000	0	0
058	2	54	P	P	f	2404.72	1	4	56	7	24	i	j	1404.52	1	100	100	1	0
058	2	55	N	N	d	886.56	0	2	24	7	56	c	n	586.29	1	1000	100	1	0
058	2	56	P	P	f	2638.69	1	8	56	4	24	c	j	1137.39	1	1000	100	1	0
058	2	57	P	P	f	602.99	1	8	24	3	56	i	n	1003.15	1	1000	1000	0	0
058	2	58	P	P	f	469.41	1	4	56	7	24	i	j	1303.94	1	1000	1000	0	0
058	2	59	N	N	d	553.15	0	2	24	7	56	c	n	686.43	1	100	100	1	0
058	2	60	N	N	d	1301.69	0	7	56	4	24	c	j	1137.55	1	1000	1000	0	0
058	2	61	P	P	f	552.62	1	3	24	8	56	c	n	568.91	1	100	100	1	0
058	2	62	P	P	f	753.23	1	7	24	2	56	i	n	1087.46	1	100	1000	0	0
058	2	63	P	P	f	502.56	1	4	24	8	56	c	n	702.78	1	100	1000	0	0
058	2	64	N	N	f	452.7	0	9	24	2	56	i	n	1236.72	0	100	100	1	0
058	2	65	P	P	f	552.31	1	9	56	4	24	c	j	569.61	1	100	100	1	1
058	3	1	P	P	f	1053.34	1	4	24	7	56	c	n	970.21	1	1000	1000	-1	0
058	3	2	P	P	f	836.78	1	3	24	9	56	c	n	537.01	1	1000	100	0	0
058	3	3	N	N	d	536.1	0	2	56	9	24	i	n	1754.84	1	1000	1000	1	0
058	3	4	P	P	f	886.82	1	7	24	4	56	i	n	1070.95	1	1000	1000	1	0
058	3	5	P	P	f	502.85	1	7	56	3	24	c	j	636.27	1	100	1000	0	0
058	3	6	P	P	f	852.5	1	4	56	7	24	i	j	1070.24	1	100	100	0	0
058	3	7	P	P	f	552.39	1	9	56	3	24	c	j	503.7	1	100	100	0	0
058	3	8	N	N	d	853.65	0	8	24	2	56	i	j	937.31	1	100	100	1	0
058	3	9	P	P	f	517.91	1	8	56	4	24	c	j	1286.74	1	100	100	1	0
058	3	10	P	P	f	485.96	1	7	24	3	56	i	n	686.15	1	100	1000	0	0
058	3	11	N	N	f	469.8	0	4	24	8	56	c	n	1470.29	1	100	100	1	0
058	3	12	P	P	f	1737.75	1	9	56	2	24	c	j	703.94	1	100	1000	1	0
058	3	13	N	N	d	1103.25	0	9	56	3	24	c	j	1738.17	1	1000	1000	1	0
058	3	14	N	N	d	636.31	0	9	56	4	24	c	j	536.58	1	100	100	0	0
058	3	15	P	P	f	769.17	1	8	56	2	24	c	j	803.75	1	1000	100	1	0
058	3	16	N	N	d	586.51	0	4	56	9	24	i	n	1704.12	1	1000	100	1	0
058	3	17	P	P	f	1237.21	1	9	56	2	24	c	j	753.71	1	1000	1000	1	0
058	3	18	N	N	d	653.35	0	9	24	4	56	i	j	1054.18	1	1000	1000	1	0
058	3	19	N	N	d	1037.16	0	9	24	3	56	i	j	1487.52	1	100	100	0	0
058	3	20	P	P	f	519.54	1	2	56	7	24	i	j	486.35	1	100	100	1	0
058	3	21	N	N	f	369.39	0	3	56	7	24	i	n	2621.56	1	100	100	1	0
058	3	22	N	N	d	1120.13	0	4	56	8	24	i	n	4657.02	1	100	100	0	0
058	3	23	N	N	d	1236.9	0	3	24	7	56	c	n	1136.97	1	1000	100	0	0
058	3	24	P	P	f	452.44	1	2	24	9	56	c	n	1504.43	1	100	1000	1	0
058	3	25	P	P	f	1053.31	1	4	24	9	56	c	n	953.82	1	100	1000	0	0
058	3	26	N	N	d	586.38	0	7	24	2	56	i	j	2455.05	1	1000	100	1	0
058	3	27	P	P	f	954.47	1	4	56	8	24	i	j	1537.62	1	1000	100	1	0
058	3	28	N	N	d	486.37	0	2	24	9	56	c	n	819.74	1	1000	1000	1	0
058	3	29	N	N	d	1187.17	0	8	56	4	24	c	j	1136.29	1	1000	1000	0	0
058	3	30	N	N	d	1003.64	0	2	24	8	56	c	n	969.89	1	1000	1000	0	0
058	3	31	P	P	d	419.33	1	7	24	4	56	i	n	1687.07	1	1000	100	1	0
058	3	32	P	P	f	836.58	1	2	56	9	24	i	j	836.41	1	1000	100	0	0
058	3	33	P	P	f	652.66	1	3	24	8	56	c	n	619.76	1	100	100	0	0
058	3	34	N	N	d	552.81	0	8	56	4	24	c	j	2121.36	1	100	1000	1	0
058	3	35	N	N	d	669.79	0	7	24	3	56	i	j	1237.55	1	1000	1000	0	0
058	3	36	P	P	f	419.57	1	2	56	8	24	i	j	1002.83	1	1000	1000	1	0
058	3	37	N	N	d	536.38	0	3	24	8	56	c	n	1153.55	1	100	1000	1	0
058	3	38	N	N	d	469.69	0	4	56	8	24	i	n	886.94	1	1000	100	0	0
058	3	39	P	P	f	469.59	1	3	24	7	56	c	n	904.32	1	100	100	1	0
058	3	40	P	P	f	517.52	1	9	56	4	24	c	j	886.45	1	1000	100	0	0
058	3	41	P	P	f	536.01	1	3	56	9	24	i	j	1368.69	1	1000	1000	0	0
058	3	42	N	N	d	502.8	0	4	56	8	24	i	n	702.7	1	100	1000	1	0
058	3	43	P	P	f	786.54	1	7	24	2	56	i	n	1186.5	1	100	100	1	0
058	3	44	P	P	f	502.46	1	9	56	4	24	c	j	636.34	1	1000	1000	0	0
058	3	45	P	P	f	486.29	1	9	24	2	56	i	n	536.56	1	100	100	0	0
058	3	46	N	N	d	2338.4	0	8	56	3	24	c	j	804.05	1	1000	100	1	0
058	3	47	N	N	d	685.97	0	4	56	8	24	i	n	1536.87	1	1000	1000	0	0
058	3	48	N	N	d	2137.78	0	7	56	3	24	c	j	1220.96	1	100	1000	0	0
058	3	49	N	N	d	1504.23	0	7	24	2	56	i	j	953.07	1	1000	100	0	0
058	3	50	N	N	d	569.49	0	9	56	4	24	c	j	852.74	1	1000	100	0	0
058	3	51	P	P	f	335.26	1	3	24	9	56	c	n	435.79	1	1000	100	1	0
058	3	52	N	N	d	802.97	0	2	24	9	56	c	n	986.59	1	1000	100	1	0
058	3	53	N	N	d	586.05	0	7	24	4	56	i	j	703.52	1	100	1000	0	0
058	3	54	P	P	f	569.86	1	3	24	7	56	c	n	2772.06	1	1000	1000	1	0
058	3	55	P	P	f	1537.27	1	9	24	4	56	i	n	2905.96	1	1000	1000	0	0
058	3	56	P	P	f	552.76	1	2	56	8	24	i	j	853.16	1	100	1000	0	0
058	3	57	N	N	d	553.06	0	8	56	3	24	c	j	869.92	1	100	100	1	0
058	3	58	N	N	d	703.32	0	4	24	9	56	c	n	686.26	1	100	100	0	0
058	3	59	N	N	d	502.25	0	3	56	7	24	i	n	685.85	1	100	1000	0	0
058	3	60	P	P	f	519.17	1	4	56	7	24	i	j	469.66	1	100	1000	1	0
058	3	61	N	N	f	420.12	0	7	24	2	56	i	j	903.55	1	100	1000	1	0
058	3	62	N	N	d	786.55	0	4	24	9	56	c	n	3106.27	1	100	1000	0	0
058	3	63	P	P	f	1036.89	1	7	24	3	56	i	n	2355.67	1	100	1000	1	0
058	3	64	P	P	f	618.97	1	2	24	8	56	c	n	969.81	1	1000	1000	0	0
058	3	65	P	P	f	586.53	1	9	24	3	56	i	n	1270.15	1	1000	100	0	0
058	4	1	N	N	d	536.32	0	2	24	8	56	c	n	1403.96	1	1000	1000	-1	0
058	4	2	N	N	d	652.38	0	4	24	8	56	c	n	653.26	1	1000	100	0	0
058	4	3	P	P	f	586.35	1	3	56	9	24	i	j	1251.58	1	100	100	1	0
058	4	4	N	N	d	519.68	0	4	24	9	56	c	n	1688.22	1	100	100	1	0
058	4	5	N	N	d	519.02	0	2	24	7	56	c	n	520.02	1	100	1000	0	0
058	4	6	N	N	d	552.32	0	4	56	9	24	i	n	1453.12	1	100	1000	0	0
058	4	7	P	P	f	553.27	1	7	56	2	24	c	j	520.11	1	100	100	1	0
058	4	8	P	P	f	403.42	1	7	24	4	56	i	n	653.14	1	100	100	0	0
058	4	9	N	N	d	1036.17	0	8	56	2	24	c	j	1035.11	1	100	100	1	0
058	4	10	P	P	f	1169.79	1	3	56	7	24	i	j	436.29	1	1000	100	1	0
058	4	11	P	P	f	369.28	1	7	56	2	24	c	j	436.1	1	1000	100	0	0
058	4	12	N	N	d	603.39	0	4	56	9	24	i	n	970.47	1	100	100	1	0
058	4	13	N	N	d	402.65	0	3	24	7	56	c	n	737.2	1	100	100	0	0
058	4	14	P	P	f	519.81	1	8	56	4	24	c	j	569.17	1	100	1000	1	0
058	4	15	N	N	d	1103.68	0	9	56	3	24	c	j	801.2	1	100	1000	1	0
058	4	16	N	N	d	2238.0	0	2	56	8	24	i	n	1001.97	1	100	100	0	0
058	4	17	N	N	d	669.92	0	7	56	4	24	c	j	1187.64	1	100	1000	0	0
058	4	18	P	P	f	1003.03	1	3	24	7	56	c	n	920.53	1	1000	1000	1	0
058	4	19	P	P	f	986.82	1	4	24	9	56	c	n	520.25	1	1000	100	0	0
058	4	20	P	P	f	769.8	1	7	56	3	24	c	j	536.7	1	100	1000	0	0
058	4	21	N	N	d	819.74	0	2	24	8	56	c	n	1337.62	1	1000	1000	1	0
058	4	22	P	P	f	970.11	1	3	56	9	24	i	j	1403.85	1	1000	1000	1	0
058	4	23	N	N	d	703.7	0	2	56	8	24	i	n	4807.0	1	1000	100	1	0
058	4	24	N	N	d	619.64	0	8	56	4	24	c	j	1336.69	1	1000	1000	0	0
058	4	25	P	P	f	636.38	1	7	24	2	56	i	n	5439.58	1	100	100	1	0
058	4	26	P	P	f	536.08	1	3	24	9	56	c	n	569.55	1	100	100	0	0
058	4	27	N	N	d	752.74	0	7	24	4	56	i	j	1437.65	1	100	1000	1	0
058	4	28	N	N	d	486.06	0	2	56	9	24	i	n	1437.44	1	1000	100	0	0
058	4	29	P	P	f	436.65	1	9	24	4	56	i	n	570.06	1	100	1000	1	0
058	4	30	P	P	f	419.63	1	8	56	3	24	c	j	485.61	1	1000	1000	0	0
058	4	31	N	N	d	769.5	0	2	24	9	56	c	n	436.34	1	100	1000	1	0
058	4	32	N	N	d	519.52	0	8	24	4	56	i	j	836.69	1	100	100	0	0
058	4	33	N	N	d	569.51	0	8	56	3	24	c	j	1003.16	1	100	100	0	0
058	4	34	N	N	d	569.66	0	7	24	2	56	i	j	801.43	1	1000	100	0	0
058	4	35	N	N	d	636.26	0	7	56	4	24	c	j	503.24	1	1000	100	0	0
058	4	36	P	P	f	435.52	1	8	24	2	56	i	n	1171.08	1	1000	100	1	0
058	4	37	P	P	f	469.03	1	4	56	8	24	i	j	552.48	1	100	100	0	0
058	4	38	P	P	f	401.38	1	2	56	9	24	i	j	587.18	1	100	1000	0	0
058	4	39	P	P	f	736.86	1	7	24	4	56	i	n	486.01	1	100	1000	0	0
058	4	40	N	N	d	502.27	0	7	24	2	56	i	j	619.6	1	100	100	1	0
058	4	41	P	P	f	1003.05	1	7	24	3	56	i	n	951.44	1	1000	1000	1	0
058	4	42	P	P	f	502.99	1	7	56	2	24	c	j	602.82	1	100	100	0	0
058	4	43	P	P	f	536.56	1	9	24	3	56	i	n	736.92	1	1000	100	0	0
058	4	44	N	N	d	719.86	0	8	24	2	56	i	j	2353.45	1	1000	1000	1	0
058	4	45	P	P	f	585.89	1	4	24	9	56	c	n	1220.13	1	100	1000	1	0
058	4	46	P	P	f	769.29	1	3	24	7	56	c	n	621.01	1	100	1000	0	0
058	4	47	P	P	f	784.59	1	4	24	9	56	c	n	620.26	1	1000	1000	0	0
058	4	48	N	N	d	636.52	0	7	56	3	24	c	j	720.03	1	1000	1000	1	0
058	4	49	P	P	f	686.71	1	2	56	9	24	i	j	469.61	1	100	1000	1	0
058	4	50	N	N	d	652.54	0	3	24	7	56	c	n	1036.3	1	1000	100	1	0
058	4	51	N	N	d	319.4	0	2	24	9	56	c	n	786.43	1	1000	1000	0	0
058	4	52	N	N	d	702.24	0	3	56	7	24	i	n	1252.89	1	1000	1000	0	0
058	4	53	P	P	f	386.27	1	8	56	2	24	c	j	620.03	1	1000	100	1	0
058	4	54	N	N	d	502.85	0	9	56	3	24	c	j	770.32	1	1000	100	1	0
058	4	55	N	N	d	535.82	0	7	24	2	56	i	j	602.78	1	100	1000	0	0
058	4	56	P	P	f	502.84	1	4	24	8	56	c	n	669.65	1	1000	100	1	0
058	4	57	P	P	f	386.3	1	3	56	8	24	i	j	584.55	1	1000	1000	0	0
058	4	58	P	P	f	285.92	1	7	24	4	56	i	j	569.58	0	1000	1000	0	0
058	4	59	P	P	f	1771.4	1	2	56	7	24	i	j	903.95	1	1000	100	0	1
058	4	60	N	N	d	619.9	0	9	24	3	56	i	j	4958.01	1	1000	100	1	0
058	4	61	P	P	f	486.44	1	2	24	8	56	c	n	837.36	1	100	100	1	0
058	4	62	N	N	d	836.61	0	3	56	9	24	i	n	903.41	1	1000	1000	1	0
058	4	63	N	N	d	552.84	0	8	24	4	56	i	j	602.7	1	1000	1000	0	0
058	4	64	P	P	f	736.65	1	7	56	3	24	c	j	2154.28	1	1000	1000	1	0
058	4	65	N	N	d	1654.36	0	2	56	9	24	i	n	1337.45	1	100	1000	1	0
058	5	1	P	P	f	652.65	1	9	56	3	24	c	j	836.81	1	100	100	-1	0
058	5	2	N	N	d	820.08	0	9	24	2	56	i	j	920.34	1	1000	1000	1	0
058	5	3	N	N	d	619.82	0	9	24	4	56	i	j	1320.68	1	1000	100	0	0
058	5	4	N	N	d	569.62	0	8	24	3	56	i	j	636.53	1	100	100	0	0
058	5	5	N	N	d	636.62	0	4	24	9	56	c	n	4607.5	1	1000	100	0	0
058	5	6	N	N	d	1286.81	0	2	24	8	56	c	n	920.28	1	100	100	0	0
058	5	7	P	P	f	469.36	1	4	24	7	56	c	n	470.19	1	100	100	1	0
058	5	8	P	P	f	552.62	1	7	56	3	24	c	j	502.71	1	100	100	0	0
058	5	9	P	P	f	402.48	1	8	24	4	56	i	n	567.88	1	100	100	0	0
058	5	10	P	P	f	419.84	1	3	56	8	24	i	j	852.95	1	1000	1000	0	0
058	5	11	N	N	d	636.78	0	9	56	4	24	c	j	870.43	1	100	100	1	0
058	5	12	P	P	f	586.25	1	2	56	8	24	i	j	936.71	1	1000	100	1	0
058	5	13	N	N	d	386.19	0	8	56	3	24	c	j	652.67	1	1000	1000	1	0
058	5	14	P	P	f	670.3	1	2	24	7	56	c	n	536.84	1	100	1000	1	0
058	5	15	P	P	f	669.68	1	4	24	9	56	c	n	736.81	1	100	100	0	0
058	5	16	P	P	f	585.97	1	9	24	2	56	i	n	536.43	1	1000	100	0	0
058	5	17	N	N	d	686.5	0	3	56	8	24	i	n	1020.58	1	100	1000	1	0
058	5	18	N	N	d	1053.66	0	8	24	4	56	i	j	986.78	1	1000	1000	0	0
058	5	19	P	P	f	603.66	1	3	24	8	56	c	n	486.4	1	1000	1000	1	0
058	5	20	N	N	d	518.81	0	4	24	8	56	c	n	770.13	1	1000	100	1	0
058	5	21	P	P	f	853.4	1	9	24	2	56	i	j	719.68	0	1000	1000	1	0
058	5	22	P	P	f	436.14	1	8	56	3	24	c	j	637.89	1	1000	100	0	1
058	5	23	N	N	d	519.58	0	7	24	4	56	i	j	987.17	1	1000	100	1	0
058	5	24	P	P	f	584.34	1	2	56	7	24	i	j	519.24	1	100	100	1	0
058	5	25	N	N	d	819.71	0	4	24	7	56	c	n	2938.48	1	100	1000	1	0
058	5	26	N	N	d	553.15	0	2	24	8	56	c	n	2155.58	1	100	1000	0	0
058	5	27	N	N	d	819.31	0	7	56	3	24	c	j	767.8	1	1000	100	0	0
058	5	28	P	P	f	936.88	1	7	24	2	56	i	n	835.93	1	1000	100	1	0
058	5	29	P	P	f	602.64	1	4	24	7	56	c	n	720.33	1	1000	100	0	0
058	5	30	P	P	f	519.6	1	3	56	9	24	i	j	352.77	1	100	1000	0	0
058	5	31	P	P	f	419.25	1	2	56	9	24	i	j	502.78	1	100	100	0	0
058	5	32	P	P	f	553.1	1	7	24	4	56	i	n	553.02	1	100	1000	0	0
058	5	33	P	P	f	519.77	1	7	56	3	24	c	j	467.69	1	100	1000	0	0
058	5	34	N	N	d	652.77	0	9	24	4	56	i	j	586.58	1	100	100	1	0
058	5	35	N	N	d	1053.61	0	2	24	7	56	c	n	486.63	1	1000	1000	0	0
058	5	36	N	N	d	603.02	0	4	56	8	24	i	j	703.64	0	1000	100	0	0
058	5	37	N	N	d	1203.66	0	9	56	3	24	c	j	904.52	1	100	100	0	1
058	5	38	N	N	d	619.43	0	9	56	2	24	c	j	668.84	1	100	1000	0	0
058	5	39	N	N	d	452.8	0	4	56	7	24	i	n	751.66	1	100	1000	0	0
058	5	40	N	N	d	2104.0	0	3	56	7	24	i	n	1404.19	1	1000	1000	0	0
058	5	41	P	P	f	719.05	1	4	24	7	56	c	n	836.18	1	1000	100	1	0
058	5	42	P	P	f	303.14	1	2	24	8	56	c	n	403.08	1	1000	1000	0	0
058	5	43	P	P	f	386.17	1	7	24	4	56	i	n	368.64	1	1000	1000	0	0
058	5	44	N	N	f	469.62	0	2	56	7	24	i	n	1136.74	1	100	100	1	0
058	5	45	N	N	d	870.07	0	7	56	3	24	c	j	2155.14	1	1000	1000	0	0
058	5	46	P	P	f	1787.88	1	2	56	8	24	i	j	3005.71	1	100	1000	1	0
058	5	47	N	N	d	669.95	0	3	56	7	24	i	n	736.35	1	1000	100	1	0
058	5	48	P	P	f	536.57	1	7	56	2	24	c	j	2254.84	1	1000	100	1	0
058	5	49	N	N	d	1688.03	0	4	24	7	56	c	n	1137.96	1	100	100	1	0
058	5	50	P	P	f	903.16	1	9	56	2	24	c	j	653.22	1	100	100	1	0
058	5	51	N	N	d	786.77	0	8	56	4	24	c	j	1520.81	1	100	1000	1	0
058	5	52	P	P	f	469.56	1	7	24	2	56	i	n	1254.08	1	100	100	1	0
058	5	53	N	N	d	684.72	0	3	24	8	56	c	n	2321.16	1	1000	1000	1	0
058	5	54	P	P	f	1420.64	1	8	24	2	56	i	n	1886.0	1	100	1000	1	0
058	5	55	N	N	d	636.42	0	8	24	4	56	i	j	603.06	1	100	1000	1	0
058	5	56	P	P	f	352.69	1	2	56	7	24	i	j	1453.82	1	1000	1000	1	0
058	5	57	P	P	f	452.91	1	8	56	4	24	c	j	1320.31	1	1000	1000	0	0
058	5	58	P	P	f	870.21	1	3	24	7	56	c	n	604.22	1	100	1000	0	0
058	5	59	N	N	d	1671.13	0	8	56	2	24	c	j	1053.78	1	1000	100	1	0
058	5	60	P	P	f	619.93	1	7	56	3	24	c	j	586.04	1	100	1000	1	0
058	5	61	N	N	d	769.53	0	2	56	8	24	i	n	1987.47	1	1000	1000	1	0
058	5	62	N	N	d	603.07	0	3	56	7	24	i	n	786.97	1	100	100	0	0
058	5	63	N	N	d	1568.92	0	8	24	2	56	i	j	720.46	1	100	1000	0	0
058	5	64	P	P	f	519.53	1	8	56	4	24	c	j	1053.05	1	1000	1000	1	0
058	5	65	P	P	f	836.18	1	2	56	8	24	i	j	2071.13	1	1000	100	0	0
058	6	1	P	P	f	602.94	1	4	56	9	24	i	j	753.59	1	100	100	-1	0
058	6	2	P	P	f	436.44	1	8	56	2	24	c	j	453.54	1	100	100	0	0
058	6	3	N	N	d	636.54	0	8	56	3	24	c	j	636.49	1	1000	100	1	0
058	6	4	N	N	d	619.62	0	9	56	4	24	c	j	636.5	1	100	100	0	0
058	6	5	P	P	f	436.03	1	2	24	8	56	c	n	486.07	1	1000	1000	1	0
058	6	6	N	N	d	703.15	0	9	24	3	56	i	j	1053.47	1	1000	100	1	0
058	6	7	P	P	f	553.69	1	9	24	2	56	i	n	869.94	1	1000	1000	1	0
058	6	8	P	P	f	653.61	1	4	56	8	24	i	j	569.46	1	100	1000	0	0
058	6	9	N	N	d	603.33	0	2	24	8	56	c	n	787.06	1	1000	100	1	0
058	6	10	N	N	d	435.63	0	4	24	9	56	c	n	1153.83	1	1000	100	0	0
058	6	11	P	P	f	619.8	1	8	56	2	24	c	j	669.51	1	100	100	1	0
058	6	12	P	P	f	602.9	1	4	24	8	56	c	n	403.46	1	100	100	0	0
058	6	13	P	P	f	386.89	1	7	24	3	56	i	n	536.35	1	100	1000	0	0
058	6	14	P	P	f	302.78	1	2	24	8	56	c	n	437.17	1	100	1000	0	0
058	6	15	N	N	f	285.94	0	9	56	4	24	c	j	1437.44	1	100	100	1	0
058	6	16	N	N	d	669.94	0	9	56	2	24	c	j	736.43	1	1000	100	0	0
058	6	17	N	N	d	736.6	0	7	56	3	24	c	j	1286.42	1	1000	1000	0	0
058	6	18	N	N	d	703.15	0	2	56	8	24	i	j	1921.9	0	1000	1000	0	0
058	6	19	P	P	f	470.03	1	8	56	3	24	c	j	819.6	1	100	1000	1	1
058	6	20	N	N	d	769.62	0	8	56	2	24	c	j	1386.96	1	100	1000	1	0
058	6	21	P	P	f	2255.12	1	4	56	9	24	i	j	1070.61	1	1000	100	1	0
058	6	22	P	P	f	418.69	1	9	24	2	56	i	n	551.22	1	100	100	0	0
058	6	23	N	N	d	436.4	0	7	56	4	24	c	j	553.09	1	1000	1000	1	0
058	6	24	N	N	d	469.59	0	8	24	3	56	i	j	586.35	1	100	1000	0	0
058	6	25	N	N	d	686.14	0	4	56	8	24	i	n	987.05	1	1000	100	0	0
058	6	26	P	P	f	703.9	1	2	56	7	24	i	j	1318.37	1	100	1000	1	0
058	6	27	N	N	d	603.05	0	4	56	7	24	i	n	2205.38	1	100	1000	1	0
058	6	28	P	P	f	1269.8	1	2	24	8	56	c	n	752.84	1	1000	100	1	0
058	6	29	P	P	f	853.42	1	7	56	3	24	c	j	568.71	1	1000	100	0	0
058	6	30	P	P	f	1353.96	1	8	56	2	24	c	j	586.6	1	1000	1000	0	0
058	6	31	N	N	d	602.97	0	8	24	4	56	i	j	1053.67	1	1000	1000	1	0
058	6	32	N	N	d	436.56	0	8	24	2	56	i	j	453.16	1	100	100	0	0
058	6	33	N	N	d	586.9	0	7	56	3	24	c	j	503.15	1	100	1000	0	0
058	6	34	N	N	d	469.49	0	2	56	8	24	i	n	570.54	1	100	100	0	0
058	6	35	P	P	f	719.49	1	7	56	3	24	c	j	585.91	1	1000	1000	1	0
058	6	36	N	N	d	1187.65	0	7	24	4	56	i	j	2137.68	1	100	1000	1	0
058	6	37	P	P	f	568.33	1	2	56	9	24	i	j	953.63	1	100	100	1	0
058	6	38	P	P	f	518.92	1	7	24	4	56	i	n	753.43	1	1000	100	0	0
058	6	39	P	P	f	469.47	1	8	56	3	24	c	j	636.32	1	100	1000	0	0
058	6	40	P	P	f	536.27	1	7	24	4	56	i	n	3006.12	1	1000	1000	0	0
058	6	41	N	N	d	652.64	0	3	56	8	24	i	n	986.56	1	1000	100	1	0
058	6	42	P	P	f	535.82	1	9	24	4	56	i	n	770.17	1	1000	100	1	0
058	6	43	N	N	d	736.61	0	2	24	9	56	c	n	953.85	1	1000	1000	1	0
058	6	44	P	P	f	819.88	1	7	24	4	56	i	n	5192.11	1	100	1000	1	0
058	6	45	N	N	d	452.88	0	3	24	9	56	c	n	969.89	1	100	100	1	0
058	6	46	P	P	f	636.16	1	4	56	9	24	i	j	2403.01	1	1000	1000	1	0
058	6	47	N	N	d	536.8	0	2	56	9	24	i	n	3289.43	1	100	100	1	0
058	6	48	N	N	d	586.46	0	7	24	4	56	i	n	4391.36	0	1000	100	0	0
058	6	49	N	N	d	552.87	0	3	24	9	56	c	n	1203.47	1	100	1000	0	1
058	6	50	P	P	f	919.82	1	8	24	2	56	i	n	619.87	1	100	100	1	0
058	6	51	N	N	d	536.34	0	3	56	9	24	i	n	1320.71	1	1000	1000	1	0
058	6	52	N	N	d	668.94	0	9	24	4	56	i	j	1937.16	1	1000	1000	0	0
058	6	53	P	P	f	669.97	1	9	56	2	24	c	j	636.5	1	1000	100	1	0
058	6	54	P	P	f	535.55	1	3	56	9	24	i	j	770.11	1	1000	1000	0	0
058	6	55	N	N	d	787.03	0	8	24	4	56	i	j	953.33	1	100	100	1	0
058	6	56	N	N	d	503.02	0	2	56	8	24	i	n	501.11	1	100	1000	0	0
058	6	57	P	P	f	452.45	1	4	24	7	56	c	n	836.01	1	100	100	1	0
058	6	58	P	P	f	1721.02	1	2	56	7	24	i	j	469.43	1	1000	100	0	0
058	6	59	N	N	d	619.88	0	3	24	8	56	c	n	903.15	1	100	1000	1	0
058	6	60	N	N	d	684.67	0	4	24	8	56	c	n	552.0	1	100	100	0	0
058	6	61	N	N	d	686.52	0	3	24	8	56	c	n	870.86	1	1000	1000	0	0
058	6	62	P	P	f	870.11	1	4	24	8	56	c	n	469.71	1	100	1000	1	0
058	6	63	P	P	f	719.89	1	2	24	7	56	c	n	486.15	1	1000	1000	0	0
058	6	64	P	P	f	453.01	1	3	56	8	24	i	j	436.0	1	100	100	0	0
058	6	65	P	P	f	402.53	1	4	24	8	56	c	n	452.38	1	1000	100	0	0
