subj	block	trial	task_cue	task	choice_resp	choiceRT	choice_acc	topnum	topsize	botnum	botsize	cong	task_resp	taskRT	task_acc	RSI	CSI	altRep	E1
063	1	1	?	P	d	52.31	NA	7	24	2	56	i	n	569.58	1	1000	1000	-1	0
063	1	2	?	P	d	1086.58	NA	9	56	4	24	c	j	586.72	1	100	100	0	0
063	1	3	?	P	d	819.88	NA	3	56	7	24	i	j	619.98	1	100	1000	0	0
063	1	4	?	N	f	552.49	NA	4	56	7	24	i	n	884.04	1	1000	100	0	0
063	1	5	?	N	f	669.32	NA	9	24	3	56	i	j	970.01	1	1000	1000	0	0
063	1	6	?	N	f	1053.4	NA	7	56	2	24	c	j	652.21	1	1000	1000	0	0
063	1	7	?	P	d	969.69	NA	3	56	7	24	i	j	1070.72	1	100	100	0	0
063	1	8	?	P	d	1086.78	NA	2	24	8	56	c	n	536.35	1	100	1000	0	0
063	1	9	?	P	d	1470.37	NA	3	24	7	56	c	n	553.3	1	100	100	0	0
063	1	10	?	N	f	1270.61	NA	2	24	8	56	c	n	736.04	1	100	100	0	0
063	1	11	?	N	f	1319.99	NA	3	24	9	56	c	n	569.64	1	100	1000	0	0
063	1	12	?	N	f	3105.8	NA	2	56	7	24	i	n	736.88	1	100	100	0	0
063	1	13	?	P	d	1120.27	NA	9	56	3	24	c	j	436.81	1	100	1000	0	0
063	1	14	?	P	d	586.35	NA	7	24	2	56	i	n	469.61	1	1000	1000	0	0
063	1	15	?	P	d	1338.12	NA	4	24	9	56	c	n	584.16	1	100	1000	0	0
063	1	16	?	N	f	1337.24	NA	2	56	7	24	i	n	1004.04	1	100	1000	0	0
063	1	17	?	N	f	1752.05	NA	9	56	4	24	c	j	619.87	1	100	1000	0	0
063	1	18	?	N	f	803.13	NA	9	56	3	24	c	j	536.44	1	1000	1000	0	0
063	1	19	?	P	d	385.79	NA	2	24	7	56	c	n	519.53	1	1000	1000	0	0
063	1	20	?	P	d	920.05	NA	4	24	9	56	c	n	520.26	1	1000	1000	0	0
063	1	21	?	P	d	669.68	NA	8	24	3	56	i	n	636.59	1	1000	100	0	0
063	1	22	?	N	f	1904.42	NA	4	24	7	56	c	n	536.92	1	100	1000	0	0
063	1	23	?	N	f	652.48	NA	3	56	7	24	i	n	951.94	1	1000	100	0	0
063	1	24	?	N	f	702.95	NA	7	24	4	56	i	j	753.77	1	1000	1000	0	0
063	1	25	?	P	d	602.73	NA	2	56	9	24	i	j	669.64	1	1000	1000	0	0
063	1	26	?	P	d	1854.08	NA	7	24	4	56	i	n	569.62	1	100	100	0	0
063	1	27	?	P	d	1204.47	NA	9	24	3	56	i	n	753.07	1	100	1000	0	0
063	1	28	?	N	f	1587.48	NA	8	24	4	56	i	j	602.61	1	100	100	0	0
063	1	29	?	P	d	634.36	NA	7	24	3	56	i	n	787.29	1	1000	1000	0	0
063	1	30	?	P	d	1888.34	NA	2	56	8	24	i	j	919.87	1	100	1000	0	0
063	1	31	?	N	f	1653.98	NA	8	56	4	24	c	j	1069.34	1	100	1000	0	0
063	1	32	?	P	d	736.08	NA	7	24	3	56	i	n	619.73	1	1000	1000	0	0
063	1	33	?	P	d	418.67	NA	4	56	9	24	i	j	603.14	1	1000	100	0	0
063	1	34	?	P	d	1537.3	NA	9	24	2	56	i	n	536.38	1	100	1000	0	0
063	1	35	?	N	f	886.21	NA	9	56	3	24	c	j	1087.01	1	100	100	0	0
063	1	36	?	N	f	519.73	NA	2	24	9	56	c	n	802.77	1	1000	100	0	0
063	1	37	?	N	f	1151.59	NA	9	24	4	56	i	j	668.96	1	100	100	0	0
063	1	38	?	P	d	1003.33	NA	3	56	8	24	i	j	1121.03	1	1000	100	0	0
063	1	39	?	P	d	486.15	NA	2	56	9	24	i	j	536.17	1	1000	1000	0	0
063	1	40	?	P	d	486.5	NA	8	56	3	24	c	j	584.95	1	1000	100	0	0
063	1	41	?	N	f	319.0	NA	2	24	9	56	c	n	636.98	1	1000	100	0	0
063	1	42	?	N	f	953.25	NA	3	56	7	24	i	n	770.31	1	100	100	0	0
063	1	43	?	N	f	419.23	NA	2	56	8	24	i	n	585.38	1	1000	100	0	0
063	1	44	?	P	d	1019.42	NA	4	24	8	56	c	n	719.88	1	1000	1000	0	0
063	1	45	?	P	d	519.57	NA	9	56	2	24	c	j	970.11	1	1000	100	0	0
063	1	46	?	P	d	1103.42	NA	8	56	3	24	c	j	436.5	1	100	1000	0	0
063	1	47	?	N	f	507.04	NA	8	56	4	24	c	j	737.24	1	1000	1000	0	0
063	1	48	?	N	f	452.68	NA	3	24	9	56	c	n	1053.83	1	1000	1000	0	0
063	1	49	?	N	f	168.41	NA	9	56	2	24	c	j	618.33	1	1000	100	0	0
063	1	50	?	P	d	702.86	NA	4	24	9	56	c	n	970.75	1	1000	100	0	0
063	1	51	?	P	d	1587.5	NA	3	56	8	24	i	j	519.8	1	100	100	0	0
063	1	52	?	P	d	336.18	NA	8	24	4	56	i	n	486.95	1	1000	1000	0	0
063	1	53	?	N	f	1020.4	NA	8	24	3	56	i	j	584.75	1	100	1000	0	0
063	1	54	?	N	f	803.18	NA	2	56	8	24	i	n	603.44	1	100	1000	0	0
063	1	55	?	N	f	1320.87	NA	9	24	4	56	i	j	937.36	1	1000	100	0	0
063	1	56	?	P	d	452.23	NA	3	24	9	56	c	n	752.92	1	1000	100	0	0
063	1	57	?	P	d	436.2	NA	8	56	2	24	c	j	603.62	1	1000	100	0	0
063	1	58	?	P	d	1571.0	NA	8	24	4	56	i	j	769.78	0	100	100	0	0
063	1	59	?	N	f	1253.56	NA	9	24	2	56	i	j	1053.35	1	1000	100	0	1
063	1	60	?	N	f	786.01	NA	9	56	3	24	c	j	620.22	1	1000	1000	0	0
063	1	61	?	N	f	1053.8	NA	2	24	7	56	c	n	536.69	1	100	100	0	0
063	1	62	?	P	d	819.98	NA	7	56	3	24	c	j	519.61	1	100	100	0	0
063	1	63	?	P	d	617.74	NA	4	24	9	56	c	n	436.08	1	100	100	0	0
063	1	64	?	P	d	486.43	NA	3	56	8	24	i	j	836.28	1	100	1000	0	0
063	1	65	?	N	f	819.5	NA	7	56	4	24	c	j	787.23	1	100	100	0	0
063	2	1	?	N	f	1270.26	NA	7	24	3	56	i	j	1687.18	1	1000	100	-1	0
063	2	2	?	N	f	619.7	NA	4	56	9	24	i	n	720.1	1	1000	100	0	0
063	2	3	?	N	f	401.98	NA	2	24	7	56	c	n	620.65	1	1000	1000	0	0
063	2	4	?	P	d	519.46	NA	7	56	3	24	c	j	920.3	1	1000	1000	0	0
063	2	5	?	P	d	385.66	NA	7	24	4	56	i	n	619.75	1	1000	1000	0	0
063	2	6	?	P	d	853.95	NA	3	56	7	24	i	j	469.28	1	100	100	0	0
063	2	7	?	N	f	770.15	NA	4	56	7	24	i	n	1153.94	1	100	1000	0	0
063	2	8	?	N	f	636.22	NA	2	56	7	24	i	n	701.45	1	100	100	0	0
063	2	9	?	N	f	536.38	NA	7	24	3	56	i	j	768.67	1	1000	100	0	0
063	2	10	?	P	d	467.37	NA	9	56	2	24	c	j	519.92	1	1000	100	0	0
063	2	11	?	P	d	1537.5	NA	4	24	8	56	c	n	503.77	1	100	100	0	0
063	2	12	?	P	d	352.95	NA	9	24	3	56	i	n	586.62	1	1000	100	0	0
063	2	13	?	N	f	603.03	NA	7	56	4	24	c	j	552.82	1	1000	1000	0	0
063	2	14	?	N	f	1086.67	NA	2	56	9	24	i	n	553.23	1	100	100	0	0
063	2	15	?	N	f	369.02	NA	4	24	8	56	c	n	702.04	1	1000	100	0	0
063	2	16	?	P	d	419.52	NA	9	24	3	56	i	n	918.62	1	1000	1000	0	0
063	2	17	?	P	d	518.89	NA	4	24	8	56	c	n	553.79	1	1000	100	0	0
063	2	18	?	P	d	402.85	NA	7	56	3	24	c	j	486.99	1	1000	100	0	0
063	2	19	?	N	f	2671.84	NA	4	24	9	56	c	n	603.01	1	100	1000	0	0
063	2	20	?	N	f	352.19	NA	2	24	7	56	c	n	586.83	1	1000	1000	0	0
063	2	21	?	N	f	737.26	NA	9	56	3	24	c	j	569.54	1	100	100	0	0
063	2	22	?	P	d	786.61	NA	7	56	4	24	c	j	1337.4	1	100	1000	0	0
063	2	23	?	P	d	2588.46	NA	9	56	3	24	c	j	470.18	1	100	1000	0	0
063	2	24	?	P	d	285.9	NA	2	24	9	56	c	n	420.17	1	1000	1000	0	0
063	2	25	?	N	f	552.14	NA	9	24	4	56	i	j	686.98	1	1000	1000	0	0
063	2	26	?	N	f	402.51	NA	9	24	3	56	i	j	570.24	1	1000	100	0	0
063	2	27	?	N	f	2002.68	NA	7	24	4	56	i	j	736.93	1	100	1000	0	0
063	2	28	?	P	d	1019.38	NA	3	24	7	56	c	n	587.18	1	100	100	0	0
063	2	29	?	P	d	285.47	NA	4	56	9	24	i	j	453.38	1	1000	1000	0	0
063	2	30	?	P	d	453.07	NA	3	24	9	56	c	n	536.05	1	100	100	0	0
063	2	31	?	N	f	1404.64	NA	7	24	4	56	i	j	453.47	1	100	1000	0	0
063	2	32	?	N	f	603.02	NA	8	56	3	24	c	j	569.52	1	100	100	0	0
063	2	33	?	N	f	919.53	NA	2	24	7	56	c	n	634.46	1	1000	100	0	0
063	2	34	?	P	d	669.89	NA	3	24	8	56	c	n	903.66	1	1000	100	0	0
063	2	35	?	P	d	352.73	NA	4	56	8	24	i	j	436.1	1	1000	1000	0	0
063	2	36	?	P	d	919.61	NA	9	56	2	24	c	j	502.66	1	100	100	0	0
063	2	37	?	N	f	1787.62	NA	4	56	8	24	i	n	636.44	1	100	1000	0	0
063	2	38	?	N	f	736.11	NA	8	24	3	56	i	j	552.64	1	100	100	0	0
063	2	39	?	N	f	569.59	NA	8	24	4	56	i	j	586.3	1	1000	1000	0	0
063	2	40	?	P	d	386.0	NA	9	56	3	24	c	j	720.64	1	1000	100	0	0
063	2	41	?	P	d	819.42	NA	8	24	4	56	i	n	853.86	1	100	1000	0	0
063	2	42	?	P	d	335.82	NA	8	56	3	24	c	j	686.43	1	1000	1000	0	0
063	2	43	?	N	f	552.28	NA	9	24	4	56	i	j	719.32	1	1000	100	0	0
063	2	44	?	N	f	336.25	NA	3	56	8	24	i	n	786.71	1	1000	1000	0	0
063	2	45	?	N	f	402.62	NA	4	56	9	24	i	n	936.87	1	1000	100	0	0
063	2	46	?	P	d	2371.73	NA	2	24	8	56	c	n	701.71	1	100	100	0	0
063	2	47	?	P	d	1187.15	NA	9	56	4	24	c	j	469.77	1	100	1000	0	0
063	2	48	?	P	d	352.87	NA	7	24	3	56	i	n	487.06	1	1000	100	0	0
063	2	49	?	N	f	969.72	NA	9	56	2	24	c	j	536.27	1	100	100	0	0
063	2	50	?	N	f	335.7	NA	9	24	3	56	i	j	687.02	1	1000	100	0	0
063	2	51	?	N	f	486.43	NA	7	56	2	24	c	j	552.79	1	1000	100	0	0
063	2	52	?	P	d	1053.25	NA	7	24	4	56	i	n	486.44	1	100	100	0	0
063	2	53	?	P	d	703.2	NA	2	24	8	56	c	n	585.9	1	100	1000	0	0
063	2	54	?	P	d	553.05	NA	4	56	7	24	i	j	452.84	1	100	100	0	0
063	2	55	?	N	f	817.84	NA	3	56	8	24	i	n	586.99	1	1000	1000	0	0
063	2	56	?	N	f	636.55	NA	2	56	7	24	i	n	585.7	1	100	100	0	0
063	2	57	?	N	f	519.53	NA	4	24	9	56	c	n	553.25	1	100	1000	0	0
063	2	58	?	P	d	1320.76	NA	9	24	3	56	i	j	853.09	0	100	1000	0	0
063	2	59	?	P	d	1186.89	NA	9	56	4	24	c	j	586.58	1	100	1000	0	1
063	2	60	?	P	d	1370.53	NA	2	56	7	24	i	j	720.47	1	100	1000	0	0
063	2	61	?	N	f	486.2	NA	4	24	8	56	c	n	971.0	1	1000	1000	0	0
063	2	62	?	N	f	986.42	NA	3	24	8	56	c	n	603.42	1	100	1000	0	0
063	2	63	?	N	f	419.36	NA	7	56	2	24	c	j	653.26	1	1000	1000	0	0
063	2	64	?	P	d	1353.75	NA	3	56	7	24	i	j	752.56	1	100	1000	0	0
063	2	65	?	P	d	636.66	NA	2	56	7	24	i	j	819.64	1	100	100	0	0
063	3	1	?	N	f	1554.01	NA	8	24	2	56	i	n	719.46	0	100	1000	-1	0
063	3	2	?	N	f	802.59	NA	9	56	4	24	c	j	603.56	1	1000	1000	0	1
063	3	3	?	N	f	669.97	NA	2	56	8	24	i	n	686.34	1	100	1000	0	0
063	3	4	?	P	d	436.31	NA	8	24	3	56	i	n	468.8	1	1000	1000	0	0
063	3	5	?	P	d	486.18	NA	4	56	8	24	i	j	552.54	1	100	100	0	0
063	3	6	?	P	d	486.1	NA	2	24	9	56	c	n	520.41	1	100	1000	0	0
063	3	7	?	N	f	385.66	NA	7	24	4	56	i	j	819.76	1	1000	100	0	0
063	3	8	?	N	f	636.37	NA	7	56	2	24	c	j	452.86	1	100	100	0	0
063	3	9	?	N	f	468.71	NA	8	56	3	24	c	j	535.46	1	100	100	0	0
063	3	10	?	P	d	552.63	NA	9	56	4	24	c	j	503.09	1	1000	100	0	0
063	3	11	?	P	d	469.12	NA	3	56	8	24	i	j	470.11	1	100	1000	0	0
063	3	12	?	P	d	419.53	NA	4	56	7	24	i	j	450.74	1	100	1000	0	0
063	3	13	?	N	f	736.65	NA	7	56	3	24	c	j	719.73	1	1000	100	0	0
063	3	14	?	N	f	1320.26	NA	4	56	8	24	i	j	653.08	0	100	1000	0	0
063	3	15	?	N	f	486.29	NA	3	24	9	56	c	n	619.58	1	1000	100	0	1
063	3	16	?	P	d	536.27	NA	8	56	4	24	c	j	952.89	1	100	1000	0	0
063	3	17	?	P	d	116.82	NA	9	24	2	56	i	n	470.14	1	1000	1000	0	0
063	3	18	?	P	d	336.01	NA	3	56	8	24	i	j	669.62	1	1000	1000	0	0
063	3	19	?	N	f	535.98	NA	7	56	4	24	c	j	937.1	1	1000	1000	0	0
063	3	20	?	N	f	302.58	NA	3	56	7	24	i	n	586.28	1	1000	1000	0	0
063	3	21	?	N	f	1854.46	NA	2	56	7	24	i	n	820.21	1	100	100	0	0
063	3	22	?	P	d	352.64	NA	9	56	4	24	c	j	403.36	1	1000	100	0	0
063	3	23	?	P	d	319.37	NA	3	56	9	24	i	j	534.67	1	1000	1000	0	0
063	3	24	?	P	d	887.64	NA	9	56	2	24	c	j	453.32	1	100	1000	0	0
063	3	25	?	N	f	302.57	NA	4	24	9	56	c	n	919.88	1	1000	100	0	0
063	3	26	?	N	f	319.41	NA	2	56	7	24	i	n	1187.1	1	1000	100	0	0
063	3	27	?	N	f	317.44	NA	3	56	7	24	i	n	586.85	1	1000	100	0	0
063	3	28	?	P	d	319.83	NA	9	56	4	24	c	j	653.32	1	1000	1000	0	0
063	3	29	?	P	d	286.16	NA	9	24	2	56	i	n	586.63	1	1000	100	0	0
063	3	30	?	P	d	1370.22	NA	3	56	9	24	i	j	686.81	1	1000	100	0	0
063	3	31	?	N	f	2588.61	NA	2	24	9	56	c	n	787.03	1	100	100	0	0
063	3	32	?	N	f	853.15	NA	4	24	9	56	c	n	517.66	1	100	100	0	0
063	3	33	?	N	f	319.28	NA	3	24	7	56	c	n	667.69	1	1000	1000	0	0
063	3	34	?	P	d	1053.61	NA	9	56	2	24	c	j	636.23	1	100	100	0	0
063	3	35	?	P	d	619.71	NA	3	24	7	56	c	n	502.82	1	100	100	0	0
063	3	36	?	P	d	485.56	NA	4	56	8	24	i	j	519.86	1	100	100	0	0
063	3	37	?	N	f	652.78	NA	2	24	9	56	c	n	536.77	1	1000	1000	0	0
063	3	38	?	N	f	436.47	NA	3	56	7	24	i	n	652.89	1	100	100	0	0
063	3	39	?	N	f	452.85	NA	8	56	4	24	c	j	500.7	1	100	100	0	0
063	3	40	?	P	d	386.13	NA	7	24	3	56	i	n	937.09	1	1000	100	0	0
063	3	41	?	P	d	336.18	NA	7	56	4	24	c	j	469.98	1	1000	100	0	0
063	3	42	?	P	d	569.68	NA	9	24	2	56	i	n	486.55	1	100	100	0	0
063	3	43	?	N	f	635.53	NA	9	24	4	56	i	j	903.3	1	1000	100	0	0
063	3	44	?	N	f	302.54	NA	3	24	9	56	c	n	519.74	1	1000	1000	0	0
063	3	45	?	N	f	786.97	NA	8	56	4	24	c	j	453.36	1	100	1000	0	0
063	3	46	?	P	d	686.42	NA	3	24	7	56	c	n	502.68	1	100	100	0	0
063	3	47	?	P	d	319.33	NA	9	56	4	24	c	j	670.02	1	1000	1000	0	0
063	3	48	?	P	d	502.93	NA	8	24	3	56	i	n	653.11	1	100	1000	0	0
063	3	49	?	N	f	1070.46	NA	4	24	7	56	c	n	452.57	1	100	1000	0	0
063	3	50	?	N	f	435.6	NA	8	24	2	56	i	j	636.08	1	100	100	0	0
063	3	51	?	N	f	419.07	NA	4	56	8	24	i	n	619.02	1	100	100	0	0
063	3	52	?	P	d	419.81	NA	7	56	2	24	c	j	886.96	1	100	1000	0	0
063	3	53	?	P	d	386.05	NA	4	56	8	24	i	j	503.16	1	100	100	0	0
063	3	54	?	P	d	1370.46	NA	7	24	2	56	i	n	586.64	1	1000	1000	0	0
063	3	55	?	N	f	2052.43	NA	4	56	9	24	i	n	586.79	1	100	1000	0	0
063	3	56	?	N	f	334.02	NA	8	24	2	56	i	j	1070.67	1	1000	1000	0	0
063	3	57	?	N	f	569.71	NA	3	24	7	56	c	n	1421.51	1	100	1000	0	0
063	3	58	?	P	d	469.47	NA	4	56	9	24	i	j	652.57	1	1000	1000	0	0
063	3	59	?	P	d	335.79	NA	2	24	7	56	c	n	569.65	1	1000	100	0	0
063	3	60	?	P	d	786.47	NA	3	56	8	24	i	j	619.7	1	100	1000	0	0
063	3	61	?	N	f	1403.85	NA	4	24	8	56	c	n	486.75	1	100	1000	0	0
063	3	62	?	N	f	286.11	NA	8	24	3	56	i	j	653.79	1	1000	100	0	0
063	3	63	?	N	f	619.83	NA	9	24	2	56	i	j	870.52	1	100	1000	0	0
063	3	64	?	P	d	569.59	NA	4	24	7	56	c	n	486.46	1	1000	1000	0	0
063	3	65	?	P	d	469.29	NA	2	24	7	56	c	n	585.99	1	1000	100	0	0
063	4	1	?	N	f	653.0	NA	2	56	8	24	i	n	1404.33	1	1000	100	-1	0
063	4	2	?	N	f	585.69	NA	3	56	7	24	i	n	653.2	1	100	100	0	0
063	4	3	?	N	f	402.65	NA	9	24	4	56	i	j	1687.55	1	100	1000	0	0
063	4	4	?	P	d	502.86	NA	2	56	7	24	i	j	669.87	1	1000	100	0	0
063	4	5	?	P	d	336.07	NA	3	56	7	24	i	j	519.89	1	1000	1000	0	0
063	4	6	?	P	d	369.44	NA	2	24	7	56	c	n	586.39	1	1000	100	0	0
063	4	7	?	P	d	1370.63	NA	3	24	8	56	c	n	2104.6	1	100	100	0	0
063	4	8	?	N	f	1687.93	NA	7	24	4	56	i	j	920.22	1	100	100	0	0
063	4	9	?	N	f	536.2	NA	9	56	3	24	c	j	1036.67	1	1000	1000	0	0
063	4	10	?	N	f	268.61	NA	8	24	4	56	i	j	820.37	1	1000	1000	0	0
063	4	11	?	N	f	736.81	NA	8	56	2	24	c	j	585.77	1	100	100	0	0
063	4	12	?	P	d	1821.0	NA	3	56	9	24	i	j	1153.54	1	100	1000	0	0
063	4	13	?	P	d	519.42	NA	9	24	2	56	i	n	570.41	1	100	1000	0	0
063	4	14	?	P	d	484.27	NA	7	24	3	56	i	n	636.43	1	100	100	0	0
063	4	15	?	N	f	552.75	NA	9	56	4	24	c	j	853.21	1	1000	1000	0	0
063	4	16	?	N	f	469.48	NA	7	24	3	56	i	j	786.79	1	100	1000	0	0
063	4	17	?	N	f	319.15	NA	2	24	8	56	c	n	570.13	1	1000	1000	0	0
063	4	18	?	P	d	419.53	NA	8	24	3	56	i	n	1168.15	1	1000	100	0	0
063	4	19	?	P	d	436.28	NA	7	24	2	56	i	n	569.33	1	100	100	0	0
063	4	20	?	P	d	936.78	NA	8	56	3	24	c	j	936.92	1	1000	100	0	0
063	4	21	?	N	f	1687.68	NA	4	24	7	56	c	n	553.53	1	100	1000	0	0
063	4	22	?	N	f	302.79	NA	7	24	2	56	i	j	1286.93	1	1000	1000	0	0
063	4	23	?	N	f	469.57	NA	9	56	3	24	c	j	602.3	1	100	100	0	0
063	4	24	?	P	d	101.86	NA	8	24	2	56	i	n	1120.97	1	1000	1000	0	0
063	4	25	?	P	d	333.89	NA	7	24	4	56	i	n	386.04	1	1000	100	0	0
063	4	26	?	P	d	402.91	NA	3	56	9	24	i	j	436.44	1	100	1000	0	0
063	4	27	?	N	f	2238.35	NA	8	56	2	24	c	j	850.9	1	100	100	0	0
063	4	28	?	N	f	285.96	NA	9	56	3	24	c	j	634.5	1	1000	1000	0	0
063	4	29	?	N	f	335.69	NA	4	24	7	56	c	n	484.17	1	100	1000	0	0
063	4	30	?	P	d	352.63	NA	9	24	3	56	i	n	937.37	1	1000	1000	0	0
063	4	31	?	P	d	517.52	NA	7	56	4	24	c	j	502.97	1	100	1000	0	0
063	4	32	?	P	d	336.2	NA	3	56	9	24	i	j	586.12	1	1000	100	0	0
063	4	33	?	N	f	1070.2	NA	7	24	4	56	i	j	951.74	1	100	100	0	0
063	4	34	?	N	f	286.07	NA	7	24	3	56	i	j	753.31	1	1000	100	0	0
063	4	35	?	N	f	536.17	NA	4	24	7	56	c	n	553.54	1	100	100	0	0
063	4	36	?	P	d	336.12	NA	8	56	3	24	c	j	704.46	1	1000	1000	0	0
063	4	37	?	P	d	403.7	NA	9	56	4	24	c	j	486.36	1	100	1000	0	0
063	4	38	?	P	d	502.94	NA	8	24	2	56	i	n	553.51	1	100	1000	0	0
063	4	39	?	N	f	484.16	NA	7	24	4	56	i	j	936.7	1	1000	100	0	0
063	4	40	?	N	f	301.87	NA	3	24	8	56	c	n	586.3	1	1000	1000	0	0
063	4	41	?	N	f	436.18	NA	7	56	4	24	c	j	620.23	1	1000	100	0	0
063	4	42	?	P	d	469.25	NA	8	24	2	56	i	n	1220.31	1	1000	1000	0	0
063	4	43	?	P	d	1003.23	NA	4	24	9	56	c	n	820.3	1	100	100	0	0
063	4	44	?	P	d	702.61	NA	2	56	8	24	i	j	470.21	1	100	100	0	0
063	4	45	?	N	f	1087.08	NA	8	56	4	24	c	j	486.2	1	100	1000	0	0
063	4	46	?	N	f	268.61	NA	3	24	8	56	c	n	553.55	1	1000	1000	0	0
063	4	47	?	N	f	668.95	NA	7	24	2	56	i	n	518.79	0	100	100	0	0
063	4	48	?	P	d	1938.12	NA	7	56	3	24	c	j	853.56	1	100	100	0	1
063	4	49	?	P	d	369.57	NA	9	24	2	56	i	n	669.68	1	100	1000	0	0
063	4	50	?	P	d	185.78	NA	3	24	8	56	c	n	567.91	1	1000	100	0	0
063	4	51	?	N	f	319.53	NA	4	24	9	56	c	n	534.24	1	1000	1000	0	0
063	4	52	?	N	f	686.46	NA	9	56	3	24	c	j	536.78	1	100	1000	0	0
063	4	53	?	N	f	302.35	NA	7	56	2	24	c	j	670.22	1	1000	100	0	0
063	4	54	?	P	d	368.7	NA	7	24	4	56	i	n	786.82	1	1000	100	0	0
063	4	55	?	P	d	286.04	NA	3	24	7	56	c	n	634.98	1	1000	100	0	0
063	4	56	?	P	d	669.42	NA	7	24	4	56	i	n	569.83	1	100	1000	0	0
063	4	57	?	N	f	1353.87	NA	3	56	7	24	i	n	919.93	1	100	100	0	0
063	4	58	?	N	f	285.65	NA	7	24	4	56	i	j	752.97	1	1000	1000	0	0
063	4	59	?	N	f	302.68	NA	2	24	9	56	c	n	736.96	1	1000	100	0	0
063	4	60	?	P	d	569.61	NA	7	24	3	56	i	j	603.38	0	1000	100	0	0
063	4	61	?	P	d	1370.94	NA	4	24	7	56	c	n	620.01	1	100	1000	0	1
063	4	62	?	P	d	202.97	NA	9	24	2	56	i	n	602.74	1	1000	1000	0	0
063	4	63	?	N	f	2004.71	NA	4	24	8	56	c	n	536.49	1	100	1000	0	0
063	4	64	?	N	f	368.71	NA	7	56	3	24	c	j	636.43	1	1000	100	0	0
063	4	65	?	N	f	819.29	NA	4	24	7	56	c	n	703.12	1	100	100	0	0
063	5	1	?	P	d	1987.51	NA	8	24	2	56	i	n	937.05	1	100	100	-1	0
063	5	2	?	P	d	1620.71	NA	4	56	8	24	i	j	602.77	1	100	100	0	0
063	5	3	?	P	d	286.11	NA	3	56	7	24	i	j	553.15	1	1000	1000	0	0
063	5	4	?	N	f	953.56	NA	7	24	2	56	i	j	952.77	1	100	1000	0	0
063	5	5	?	N	f	285.82	NA	3	24	7	56	c	n	701.77	1	1000	100	0	0
063	5	6	?	N	f	519.57	NA	2	24	8	56	c	n	503.26	1	100	100	0	0
063	5	7	?	P	d	586.71	NA	3	56	8	24	i	j	836.68	1	1000	1000	0	0
063	5	8	?	P	d	435.99	NA	9	56	2	24	c	j	535.57	1	100	1000	0	0
063	5	9	?	P	d	586.78	NA	4	56	7	24	i	j	503.3	1	100	1000	0	0
063	5	10	?	N	f	754.07	NA	2	56	7	24	i	n	770.16	1	100	100	0	0
063	5	11	?	N	f	937.13	NA	4	24	7	56	c	n	586.65	1	100	1000	0	0
063	5	12	?	N	f	402.49	NA	2	24	9	56	c	n	519.6	1	100	1000	0	0
063	5	13	?	P	d	402.07	NA	7	24	3	56	i	n	920.3	1	100	100	0	0
063	5	14	?	P	d	485.56	NA	9	56	2	24	c	j	403.15	1	1000	1000	0	0
063	5	15	?	P	d	285.84	NA	9	56	4	24	c	j	636.91	1	1000	1000	0	0
063	5	16	?	N	f	452.75	NA	3	56	7	24	i	n	519.75	1	1000	1000	0	0
063	5	17	?	N	f	452.63	NA	2	56	9	24	i	n	786.73	1	100	1000	0	0
063	5	18	?	N	f	318.92	NA	9	24	3	56	i	j	569.98	1	1000	100	0	0
063	5	19	?	P	d	686.3	NA	7	56	4	24	c	j	653.45	1	100	100	0	0
063	5	20	?	P	d	336.33	NA	2	24	7	56	c	n	870.59	1	1000	100	0	0
063	5	21	?	P	d	669.58	NA	4	24	9	56	c	n	469.87	1	100	1000	0	0
063	5	22	?	N	f	168.95	NA	7	24	3	56	i	j	670.26	1	1000	1000	0	0
063	5	23	?	N	f	469.59	NA	7	56	2	24	c	j	536.6	1	100	1000	0	0
063	5	24	?	N	f	586.32	NA	9	24	3	56	i	j	569.7	1	1000	100	0	0
063	5	25	?	P	d	986.77	NA	2	56	7	24	i	n	886.54	0	100	100	0	0
063	5	26	?	P	d	1070.06	NA	7	24	3	56	i	j	570.29	0	100	100	0	1
063	5	27	?	P	d	1670.81	NA	7	24	4	56	i	n	469.39	1	100	1000	0	1
063	5	28	?	N	f	536.48	NA	2	24	9	56	c	n	803.1	1	1000	1000	0	0
063	5	29	?	N	f	519.15	NA	4	56	7	24	i	n	552.92	1	100	1000	0	0
063	5	30	?	N	f	353.47	NA	8	56	3	24	c	j	569.78	1	100	1000	0	0
063	5	31	?	P	d	302.72	NA	2	56	7	24	i	j	737.14	1	1000	100	0	0
063	5	32	?	P	d	619.61	NA	7	24	4	56	i	n	620.56	1	100	1000	0	0
063	5	33	?	P	d	352.71	NA	2	56	9	24	i	j	469.94	1	100	100	0	0
063	5	34	?	N	f	453.07	NA	9	56	3	24	c	j	452.76	1	1000	1000	0	0
063	5	35	?	N	f	317.12	NA	2	56	8	24	i	n	1070.66	1	1000	1000	0	0
063	5	36	?	N	f	1087.0	NA	4	24	8	56	c	n	586.6	1	100	100	0	0
063	5	37	?	P	d	602.79	NA	2	56	7	24	i	j	386.46	1	1000	1000	0	0
063	5	38	?	P	d	3406.12	NA	8	56	4	24	c	j	752.77	1	1000	1000	0	0
063	5	39	?	P	d	602.74	NA	8	56	3	24	c	j	502.8	1	100	100	0	0
063	5	40	?	N	f	585.86	NA	4	56	9	24	i	n	1001.32	1	1000	1000	0	0
063	5	41	?	N	f	286.17	NA	3	56	8	24	i	n	603.93	1	1000	100	0	0
063	5	42	?	N	f	369.45	NA	7	56	4	24	c	j	686.33	1	1000	100	0	0
063	5	43	?	P	d	786.65	NA	3	24	9	56	c	n	804.16	1	1000	100	0	0
063	5	44	?	P	d	385.28	NA	8	24	2	56	i	n	637.06	1	100	100	0	0
063	5	45	?	P	d	302.44	NA	8	24	3	56	i	n	402.49	1	1000	100	0	0
063	5	46	?	N	f	352.55	NA	2	56	8	24	i	n	820.46	1	1000	100	0	0
063	5	47	?	N	f	786.77	NA	7	56	3	24	c	j	703.84	1	100	100	0	0
063	5	48	?	N	f	736.15	NA	7	24	2	56	i	j	1036.54	1	100	1000	0	0
063	5	49	?	P	d	302.59	NA	4	24	8	56	c	n	453.58	1	1000	1000	0	0
063	5	50	?	P	d	252.38	NA	3	24	7	56	c	n	453.47	1	1000	100	0	0
063	5	51	?	P	d	419.49	NA	4	56	9	24	i	j	435.79	1	100	100	0	0
063	5	52	?	N	f	1070.31	NA	2	56	7	24	i	n	1034.43	1	1000	1000	0	0
063	5	53	?	N	f	318.98	NA	4	56	8	24	i	n	670.55	1	1000	100	0	0
063	5	54	?	N	f	402.79	NA	9	56	3	24	c	j	586.95	1	100	1000	0	0
063	5	55	?	P	d	302.66	NA	2	56	8	24	i	j	886.04	1	1000	100	0	0
063	5	56	?	P	d	602.77	NA	3	24	7	56	c	n	486.28	1	100	100	0	0
063	5	57	?	P	d	586.35	NA	2	24	7	56	c	n	552.94	1	100	100	0	0
063	5	58	?	N	f	1034.86	NA	3	24	8	56	c	n	1588.21	1	1000	1000	0	0
063	5	59	?	N	f	536.19	NA	8	24	2	56	i	j	636.78	1	100	1000	0	0
063	5	60	?	N	f	536.31	NA	9	56	3	24	c	j	652.45	1	1000	100	0	0
063	5	61	?	P	d	702.98	NA	4	24	9	56	c	n	869.56	1	1000	1000	0	0
063	5	62	?	P	d	319.58	NA	7	56	3	24	c	j	602.43	1	1000	100	0	0
063	5	63	?	P	d	586.73	NA	4	24	8	56	c	n	670.76	1	100	1000	0	0
063	5	64	?	N	f	1154.62	NA	7	56	2	24	c	j	636.43	1	100	100	0	0
063	5	65	?	N	f	268.71	NA	9	56	4	24	c	j	469.66	1	1000	100	0	0
063	6	1	?	P	d	1321.58	NA	7	24	3	56	i	n	752.84	1	100	1000	-1	0
063	6	2	?	P	d	269.63	NA	4	24	7	56	c	n	436.0	1	1000	1000	0	0
063	6	3	?	P	d	319.4	NA	2	56	7	24	i	j	786.34	1	1000	100	0	0
063	6	4	?	N	f	853.4	NA	3	24	9	56	c	n	720.09	1	100	1000	0	0
063	6	5	?	N	f	570.02	NA	4	56	7	24	i	n	884.86	1	100	100	0	0
063	6	6	?	N	f	286.03	NA	2	56	7	24	i	n	753.48	1	1000	100	0	0
063	6	7	?	P	d	502.63	NA	3	56	9	24	i	j	602.23	1	100	1000	0	0
063	6	8	?	P	d	386.29	NA	7	56	4	24	c	j	670.5	1	1000	100	0	0
063	6	9	?	P	d	869.49	NA	9	56	3	24	c	j	620.24	1	100	100	0	0
063	6	10	?	N	f	669.33	NA	2	24	8	56	c	n	636.91	1	1000	1000	0	0
063	6	11	?	N	f	2271.72	NA	9	56	4	24	c	j	753.31	1	100	100	0	0
063	6	12	?	N	f	586.35	NA	9	56	2	24	c	j	569.68	1	1000	1000	0	0
063	6	13	?	P	d	535.79	NA	3	56	7	24	i	j	1253.98	1	1000	1000	0	0
063	6	14	?	P	d	1036.69	NA	4	56	9	24	i	j	470.24	1	100	100	0	0
063	6	15	?	P	d	285.78	NA	3	24	7	56	c	n	553.6	1	1000	100	0	0
063	6	16	?	N	f	486.3	NA	7	24	2	56	i	j	736.64	1	1000	100	0	0
063	6	17	?	N	f	336.13	NA	3	24	8	56	c	n	619.98	1	1000	1000	0	0
063	6	18	?	N	f	836.21	NA	9	24	4	56	i	j	753.19	1	100	100	0	0
063	6	19	?	P	d	920.34	NA	2	56	9	24	i	j	870.09	1	100	1000	0	0
063	6	20	?	P	d	336.08	NA	7	24	3	56	i	n	653.71	1	1000	1000	0	0
063	6	21	?	P	d	653.06	NA	8	56	2	24	c	j	603.76	1	100	100	0	0
063	6	22	?	N	f	2322.17	NA	7	24	4	56	i	j	953.13	1	100	100	0	0
063	6	23	?	N	f	319.45	NA	2	56	9	24	i	n	953.06	1	1000	100	0	0
063	6	24	?	N	f	402.07	NA	3	56	8	24	i	n	619.51	1	1000	1000	0	0
063	6	25	?	P	d	653.03	NA	7	24	2	56	i	n	453.37	1	100	1000	0	0
063	6	26	?	P	d	202.65	NA	9	56	3	24	c	j	585.73	1	1000	1000	0	0
063	6	27	?	P	d	836.58	NA	4	24	9	56	c	n	535.59	1	100	100	0	0
063	6	28	?	N	f	1004.15	NA	8	24	2	56	i	j	1503.95	1	100	100	0	0
063	6	29	?	N	f	436.02	NA	4	56	7	24	i	n	1170.77	1	1000	100	0	0
063	6	30	?	N	f	302.73	NA	3	24	9	56	c	n	519.91	1	1000	100	0	0
063	6	31	?	P	d	1403.94	NA	4	24	7	56	c	n	453.56	1	100	1000	0	0
063	6	32	?	P	d	350.75	NA	3	24	8	56	c	n	536.2	1	100	100	0	0
063	6	33	?	P	d	385.97	NA	2	24	8	56	c	n	469.36	1	100	1000	0	0
063	6	34	?	N	f	269.17	NA	7	24	4	56	i	j	719.66	1	1000	100	0	0
063	6	35	?	N	f	484.25	NA	2	56	8	24	i	n	535.37	1	100	100	0	0
063	6	36	?	N	f	452.89	NA	4	56	9	24	i	n	803.21	1	100	1000	0	0
063	6	37	?	P	d	519.32	NA	2	56	7	24	i	j	452.51	1	100	1000	0	0
063	6	38	?	P	d	319.41	NA	7	56	3	24	c	j	519.98	1	1000	100	0	0
063	6	39	?	P	d	402.63	NA	7	24	4	56	i	n	469.76	1	100	1000	0	0
063	6	40	?	N	f	619.68	NA	2	56	7	24	i	n	720.83	1	100	100	0	0
063	6	41	?	N	f	452.92	NA	4	56	8	24	i	n	720.4	1	100	100	0	0
063	6	42	?	N	f	335.89	NA	7	56	2	24	c	j	1087.0	1	100	1000	0	0
063	6	43	?	P	d	636.9	NA	4	24	7	56	c	n	804.39	1	100	100	0	0
063	6	44	?	P	d	386.37	NA	2	24	8	56	c	n	584.96	1	100	100	0	0
063	6	45	?	P	d	319.46	NA	3	56	7	24	i	j	652.92	1	1000	1000	0	0
063	6	46	?	N	f	586.28	NA	4	56	9	24	i	n	3707.31	1	1000	100	0	0
063	6	47	?	N	f	519.35	NA	8	56	2	24	c	j	686.32	1	1000	100	0	0
063	6	48	?	N	f	335.99	NA	4	24	8	56	c	n	920.53	1	1000	100	0	0
063	6	49	?	P	d	702.83	NA	2	56	9	24	i	j	1337.68	1	1000	1000	0	0
063	6	50	?	P	d	317.81	NA	9	56	4	24	c	j	352.73	1	1000	1000	0	0
063	6	51	?	P	d	686.51	NA	9	56	3	24	c	j	436.29	1	100	100	0	0
063	6	52	?	N	f	336.1	NA	9	56	4	24	c	j	553.93	1	1000	100	0	0
063	6	53	?	N	f	319.43	NA	2	56	8	24	i	n	453.48	1	1000	1000	0	0
063	6	54	?	N	f	502.61	NA	8	56	3	24	c	j	519.8	1	100	1000	0	0
063	6	55	?	P	d	486.09	NA	2	56	8	24	i	j	820.54	1	100	1000	0	0
063	6	56	?	P	d	352.27	NA	4	24	7	56	c	n	569.36	1	1000	1000	0	0
063	6	57	?	P	d	352.62	NA	7	56	3	24	c	j	386.56	1	100	1000	0	0
063	6	58	?	N	f	419.33	NA	4	56	9	24	i	n	869.95	1	100	1000	0	0
063	6	59	?	N	f	300.52	NA	7	24	3	56	i	j	603.27	1	1000	100	0	0
063	6	60	?	N	f	302.56	NA	9	56	2	24	c	j	603.61	1	1000	1000	0	0
063	6	61	?	P	d	402.61	NA	9	24	3	56	i	n	936.92	1	1000	1000	0	0
063	6	62	?	P	d	452.61	NA	8	56	4	24	c	j	519.64	1	100	1000	0	0
063	6	63	?	P	d	352.21	NA	3	24	8	56	c	n	402.9	1	100	1000	0	0
063	6	64	?	N	f	386.05	NA	2	24	7	56	c	n	719.76	1	1000	100	0	0
063	6	65	?	N	f	319.21	NA	8	24	4	56	i	j	501.11	1	1000	1000	0	0
