subj	block	trial	task_cue	task	choice_resp	choiceRT	choice_acc	topnum	topsize	botnum	botsize	cong	task_resp	taskRT	task_acc	RSI	CSI	altRep	E1
064	1	1	N	N	d	636.25	0	4	24	8	56	c	n	1020.49	1	1000	100	-1	0
064	1	2	P	P	f	586.58	1	3	24	8	56	c	n	636.44	1	1000	100	1	0
064	1	3	N	N	d	720.23	0	2	56	8	24	i	n	1587.67	1	100	1000	1	0
064	1	4	P	P	f	836.51	1	8	56	4	24	c	j	819.67	1	1000	1000	1	0
064	1	5	N	N	d	669.5	0	8	56	3	24	c	j	503.48	1	1000	1000	1	0
064	1	6	N	N	d	486.16	0	7	56	4	24	c	j	603.14	1	1000	100	0	0
064	1	7	P	P	f	586.31	1	9	24	2	56	i	n	686.22	1	100	100	1	0
064	1	8	P	P	f	902.84	1	4	24	8	56	c	n	536.95	1	100	1000	0	0
064	1	9	N	N	d	1034.83	0	3	56	8	24	i	n	870.46	1	1000	100	1	0
064	1	10	N	N	d	803.11	0	2	56	7	24	i	n	919.95	1	1000	1000	0	0
064	1	11	N	N	d	619.83	0	7	24	4	56	i	j	686.44	1	100	100	0	0
064	1	12	N	N	d	919.94	0	3	24	8	56	c	n	852.95	1	1000	100	0	0
064	1	13	P	P	f	670.06	1	2	56	8	24	i	j	436.61	1	100	1000	1	0
064	1	14	N	N	d	703.28	0	8	56	4	24	c	j	1036.54	1	100	1000	1	0
064	1	15	P	P	d	736.26	1	3	56	7	24	i	j	1020.27	1	1000	1000	1	0
064	1	16	P	P	f	1120.17	1	9	56	4	24	c	j	502.79	1	100	1000	0	0
064	1	17	P	P	f	618.91	1	9	56	3	24	c	j	537.05	1	1000	100	0	0
064	1	18	P	P	f	436.08	1	2	56	8	24	i	j	1086.76	1	1000	100	0	0
064	1	19	P	P	f	1003.76	1	3	56	7	24	i	j	1987.62	1	1000	1000	0	0
064	1	20	P	P	f	702.94	1	4	24	9	56	c	n	786.33	1	1000	1000	0	0
064	1	21	P	P	f	1721.04	1	3	56	8	24	i	j	736.46	1	100	1000	0	0
064	1	22	N	N	d	567.77	0	4	24	8	56	c	n	552.54	1	100	100	1	0
064	1	23	P	P	f	453.08	1	8	24	3	56	i	n	1220.54	1	1000	100	1	0
064	1	24	N	N	d	569.7	0	4	24	9	56	c	n	419.45	1	1000	1000	1	0
064	1	25	N	N	d	802.73	0	8	56	2	24	c	j	1337.85	1	100	100	0	0
064	1	26	P	P	f	1537.55	1	7	56	4	24	c	j	469.22	1	100	100	1	0
064	1	27	P	P	f	1604.32	1	2	24	7	56	c	n	686.48	1	1000	100	0	0
064	1	28	N	N	d	418.86	0	9	56	3	24	c	j	787.11	1	1000	100	1	0
064	1	29	P	P	f	903.36	1	2	56	8	24	i	j	1104.26	1	1000	100	1	0
064	1	30	N	N	d	736.58	0	4	24	7	56	c	n	853.98	1	100	1000	1	0
064	1	31	P	P	f	602.65	1	8	56	2	24	c	j	736.32	1	1000	100	1	0
064	1	32	P	P	f	903.56	1	8	56	3	24	c	j	453.44	1	1000	1000	0	0
064	1	33	N	N	d	920.17	0	4	56	7	24	i	n	2171.47	1	1000	1000	1	0
064	1	34	P	P	f	519.71	1	2	24	7	56	c	n	553.19	1	100	1000	1	0
064	1	35	N	N	d	702.98	0	9	56	4	24	c	j	769.97	1	100	100	1	0
064	1	36	P	P	f	452.33	1	9	24	3	56	i	n	637.46	1	100	1000	1	0
064	1	37	N	N	d	386.37	0	4	56	8	24	i	n	769.76	1	100	100	1	0
064	1	38	P	P	f	369.66	1	7	56	3	24	c	j	553.27	1	100	1000	1	0
064	1	39	P	P	d	453.01	1	9	24	4	56	i	n	652.91	1	100	1000	0	0
064	1	40	N	N	d	585.75	0	8	24	3	56	i	j	987.34	1	100	100	1	0
064	1	41	P	P	f	352.64	1	4	24	9	56	c	n	603.0	1	100	100	1	0
064	1	42	P	P	f	886.12	1	8	56	2	24	c	j	550.91	1	100	100	0	0
064	1	43	P	P	f	636.27	1	7	24	4	56	i	n	468.7	1	100	100	0	0
064	1	44	P	P	f	552.7	1	3	24	9	56	c	n	453.09	1	100	100	0	0
064	1	45	N	N	d	568.9	0	4	24	8	56	c	n	653.05	1	1000	100	1	0
064	1	46	N	N	d	736.75	0	2	56	9	24	i	n	687.22	1	1000	100	0	0
064	1	47	P	P	d	352.54	1	4	56	9	24	i	n	736.02	0	100	100	1	0
064	1	48	P	P	f	1169.96	1	8	24	2	56	i	n	953.02	1	1000	1000	0	1
064	1	49	N	N	d	1070.4	0	9	24	3	56	i	j	803.2	1	1000	1000	1	0
064	1	50	P	P	f	536.51	1	9	24	4	56	i	n	903.34	1	1000	1000	1	0
064	1	51	N	N	d	585.78	0	9	24	2	56	i	j	1170.72	1	100	1000	1	0
064	1	52	N	N	d	669.79	0	3	24	7	56	c	n	554.69	1	1000	1000	0	0
064	1	53	N	N	d	769.48	0	4	56	9	24	i	n	619.72	1	100	100	0	0
064	1	54	N	N	d	601.19	0	9	56	2	24	c	j	3723.63	1	1000	1000	0	0
064	1	55	P	P	f	702.57	1	3	24	8	56	c	n	903.0	1	1000	1000	1	0
064	1	56	P	P	f	636.7	1	2	56	7	24	i	j	853.9	1	100	100	0	0
064	1	57	P	P	f	502.94	1	7	24	3	56	i	j	984.64	0	1000	100	0	0
064	1	58	N	N	d	519.08	0	8	24	4	56	i	j	552.34	1	1000	100	1	1
064	1	59	N	N	f	586.13	0	3	24	9	56	c	n	784.41	1	100	100	0	0
064	1	60	N	N	d	719.47	0	7	24	4	56	i	j	1271.23	1	100	1000	0	0
064	1	61	N	N	d	436.23	0	7	24	2	56	i	j	987.46	1	1000	1000	0	0
064	1	62	N	N	d	385.88	0	9	24	4	56	i	j	618.93	1	1000	100	0	0
064	1	63	N	N	d	685.63	0	3	56	9	24	i	n	987.26	1	100	1000	0	0
064	1	64	N	N	d	4457.1	0	8	56	2	24	c	j	803.41	1	100	1000	0	0
064	1	65	N	N	d	385.74	0	3	24	9	56	c	n	820.06	1	100	1000	0	0
064	2	1	N	N	d	1971.15	0	2	56	9	24	i	n	1937.63	1	1000	100	-1	0
064	2	2	N	N	d	3189.4	0	9	56	3	24	c	j	1037.51	1	100	1000	0	0
064	2	3	N	N	d	753.22	0	4	56	9	24	i	n	669.94	1	1000	1000	0	0
064	2	4	P	P	f	1036.91	1	9	24	2	56	i	n	719.51	1	1000	100	1	0
064	2	5	P	P	f	819.78	1	4	56	8	24	i	j	853.46	1	1000	100	0	0
064	2	6	N	N	d	1604.09	0	3	56	7	24	i	n	652.85	1	100	1000	1	0
064	2	7	N	N	d	686.56	0	8	24	4	56	i	j	2189.4	1	100	1000	0	0
064	2	8	N	N	d	669.66	0	7	24	3	56	i	j	2438.02	1	1000	1000	0	0
064	2	9	P	P	f	586.62	1	7	24	2	56	i	n	953.41	1	100	1000	1	0
064	2	10	P	P	f	1370.41	1	7	56	3	24	c	j	686.98	1	1000	1000	0	0
064	2	11	P	P	f	1001.46	1	4	56	8	24	i	j	887.71	1	100	100	0	0
064	2	12	P	P	f	417.2	1	3	56	7	24	i	j	619.67	1	1000	1000	0	0
064	2	13	N	N	d	486.16	0	7	56	2	24	c	j	720.34	1	1000	1000	1	0
064	2	14	P	P	f	469.46	1	8	24	3	56	i	n	869.44	1	1000	1000	1	0
064	2	15	N	N	d	500.9	0	4	56	9	24	i	n	1304.05	1	1000	1000	1	0
064	2	16	P	P	f	735.77	1	2	56	7	24	i	j	669.35	1	100	100	1	0
064	2	17	N	N	d	519.89	0	8	56	3	24	c	j	736.41	1	100	100	1	0
064	2	18	N	N	d	636.29	0	4	56	9	24	i	n	536.57	1	100	1000	0	0
064	2	19	P	P	f	636.62	1	7	56	2	24	c	j	403.48	1	100	100	1	0
064	2	20	N	N	d	502.86	0	4	24	8	56	c	n	736.69	1	100	100	1	0
064	2	21	N	N	d	586.3	0	8	56	2	24	c	j	819.95	1	1000	1000	0	0
064	2	22	N	N	d	703.12	0	3	24	7	56	c	n	620.27	1	1000	1000	0	0
064	2	23	P	P	f	536.58	1	2	24	7	56	c	n	635.88	1	1000	100	1	0
064	2	24	P	P	f	318.77	1	4	24	8	56	c	n	436.54	1	1000	1000	0	0
064	2	25	N	N	f	285.96	0	7	24	2	56	i	j	786.74	1	1000	1000	1	0
064	2	26	P	P	f	602.82	1	4	56	9	24	i	j	1387.57	1	1000	100	1	0
064	2	27	N	N	d	686.47	0	2	56	8	24	i	n	1336.31	1	1000	100	1	0
064	2	28	N	N	d	436.17	0	7	56	3	24	c	j	1220.88	1	1000	100	0	0
064	2	29	P	P	f	753.56	1	8	56	4	24	c	j	667.55	1	100	1000	1	0
064	2	30	N	N	d	1570.96	0	9	24	2	56	i	n	1702.08	0	1000	100	1	0
064	2	31	P	P	f	769.93	1	7	56	3	24	c	j	786.49	1	1000	100	1	1
064	2	32	P	P	f	903.03	1	7	24	4	56	i	n	1387.71	1	1000	1000	0	0
064	2	33	N	N	d	802.87	0	7	56	2	24	c	j	636.08	1	1000	100	1	0
064	2	34	P	P	f	786.52	1	3	56	8	24	i	j	1871.13	1	1000	1000	1	0
064	2	35	P	P	f	653.01	1	7	56	4	24	c	j	453.6	1	100	100	0	0
064	2	36	P	P	f	369.43	1	3	24	9	56	c	n	686.26	1	100	1000	0	0
064	2	37	P	P	f	519.87	1	8	24	2	56	i	n	836.52	1	100	1000	0	0
064	2	38	N	N	d	920.0	0	9	56	3	24	c	j	1820.71	1	100	1000	1	0
064	2	39	N	N	d	703.16	0	2	56	7	24	i	n	786.61	1	100	100	0	0
064	2	40	N	N	d	552.75	0	3	24	8	56	c	n	636.22	1	100	100	0	0
064	2	41	N	N	d	636.54	0	2	24	8	56	c	n	686.68	1	100	1000	0	0
064	2	42	N	N	d	569.87	0	8	24	4	56	i	j	1370.31	1	100	100	0	0
064	2	43	N	N	d	586.24	0	2	24	7	56	c	n	687.05	1	1000	100	0	0
064	2	44	N	N	d	586.37	0	9	56	4	24	c	j	500.8	1	100	100	0	0
064	2	45	P	P	f	469.58	1	8	56	2	24	c	j	602.95	1	1000	1000	1	0
064	2	46	P	P	f	619.7	1	9	24	4	56	i	n	553.34	1	1000	100	0	0
064	2	47	N	N	d	585.97	0	3	24	7	56	c	n	468.95	1	1000	100	1	0
064	2	48	N	N	d	567.77	0	2	56	9	24	i	n	934.78	1	1000	100	0	0
064	2	49	P	P	d	385.67	1	3	56	8	24	i	j	502.88	1	100	1000	1	0
064	2	50	N	N	d	636.74	0	4	56	9	24	i	j	753.94	0	100	100	1	0
064	2	51	P	P	f	703.82	1	2	24	7	56	c	n	468.61	1	100	100	1	1
064	2	52	N	N	d	536.63	0	3	24	9	56	c	n	3255.77	1	100	1000	1	0
064	2	53	P	P	f	1970.68	1	4	24	8	56	c	n	769.83	1	1000	1000	1	0
064	2	54	P	P	f	886.74	1	8	56	2	24	c	j	552.97	1	1000	100	0	0
064	2	55	N	N	d	536.46	0	7	24	3	56	i	j	836.9	1	100	1000	1	0
064	2	56	N	N	d	602.44	0	9	24	4	56	i	j	1053.97	1	1000	100	0	0
064	2	57	P	P	f	619.54	1	9	24	3	56	i	n	603.17	1	100	100	1	0
064	2	58	P	P	f	403.7	1	4	24	9	56	c	n	419.33	1	100	100	0	0
064	2	59	N	N	d	435.84	0	2	24	7	56	c	n	4054.79	1	1000	1000	1	0
064	2	60	P	P	f	452.75	1	4	24	8	56	c	n	951.49	1	100	1000	1	0
064	2	61	P	P	f	436.42	1	9	24	3	56	i	n	486.19	1	100	100	0	0
064	2	62	P	P	f	335.83	1	8	56	4	24	c	j	386.18	1	100	1000	0	0
064	2	63	P	P	f	536.48	1	2	24	7	56	c	n	435.17	1	1000	100	0	0
064	2	64	P	P	f	436.03	1	4	56	8	24	i	j	452.93	1	100	1000	0	0
064	2	65	N	N	f	319.36	0	7	24	3	56	i	j	951.87	1	100	100	1	0
064	3	1	N	N	d	1120.46	0	7	24	2	56	i	j	903.83	1	100	100	-1	0
064	3	2	P	P	f	886.47	1	3	24	8	56	c	n	870.17	1	100	100	1	0
064	3	3	N	N	d	536.06	0	9	56	4	24	c	j	586.4	1	100	100	1	0
064	3	4	N	N	f	519.91	0	2	24	8	56	c	n	1637.28	1	100	100	0	0
064	3	5	N	N	d	684.0	0	4	56	8	24	i	n	2337.93	1	100	100	0	0
064	3	6	P	P	f	486.0	1	2	56	8	24	i	j	1054.04	1	100	1000	1	0
064	3	7	N	N	d	553.46	0	3	56	8	24	i	j	1487.08	0	100	1000	1	0
064	3	8	N	N	d	569.74	0	2	24	9	56	c	n	485.96	1	1000	100	0	1
064	3	9	P	P	f	536.34	1	7	56	3	24	c	j	3973.28	1	100	1000	1	0
064	3	10	P	P	f	1687.11	1	2	24	8	56	c	n	869.89	1	1000	1000	0	0
064	3	11	P	P	f	635.96	1	7	56	4	24	c	j	636.42	1	1000	1000	0	0
064	3	12	P	P	f	368.8	1	3	56	8	24	i	j	686.08	1	1000	100	0	0
064	3	13	N	N	d	653.18	0	2	24	9	56	c	n	486.76	1	100	1000	1	0
064	3	14	P	P	f	919.77	1	4	24	7	56	c	n	619.73	1	100	1000	1	0
064	3	15	N	N	d	835.91	0	2	24	8	56	c	n	3639.62	1	1000	100	1	0
064	3	16	P	P	f	503.22	1	9	24	4	56	i	n	820.61	1	100	1000	1	0
064	3	17	P	P	f	1203.17	1	7	24	3	56	i	n	735.86	1	1000	1000	0	0
064	3	18	N	N	d	669.68	0	7	24	4	56	i	n	1070.23	0	1000	1000	1	0
064	3	19	N	N	d	1003.27	0	9	56	3	24	c	j	586.94	1	100	100	0	1
064	3	20	P	P	f	485.87	1	7	56	4	24	c	j	451.76	1	100	100	1	0
064	3	21	P	P	f	769.99	1	7	24	2	56	i	n	570.0	1	1000	100	0	0
064	3	22	P	P	f	686.34	1	4	24	7	56	c	n	519.25	1	1000	100	0	0
064	3	23	N	N	d	520.0	0	9	56	2	24	c	j	520.2	1	100	1000	1	0
064	3	24	N	N	d	3689.65	0	8	24	4	56	i	j	1253.05	1	100	1000	0	0
064	3	25	N	N	d	1036.66	0	3	24	9	56	c	n	3022.92	1	100	1000	0	0
064	3	26	P	P	f	519.61	1	7	24	4	56	i	n	802.86	1	1000	1000	1	0
064	3	27	N	N	d	535.87	0	8	56	2	24	c	j	1020.14	1	1000	1000	1	0
064	3	28	N	N	d	819.5	0	3	56	7	24	i	n	1771.08	1	1000	100	0	0
064	3	29	N	N	d	819.43	0	2	56	9	24	i	n	1853.51	1	1000	1000	0	0
064	3	30	N	N	d	1036.9	0	7	56	4	24	c	j	652.81	1	1000	1000	0	0
064	3	31	P	P	d	569.89	1	9	56	2	24	c	j	836.34	1	1000	100	1	0
064	3	32	N	N	d	418.96	0	4	56	7	24	i	n	967.78	1	1000	100	1	0
064	3	33	N	N	d	352.85	0	8	24	2	56	i	j	1018.47	1	1000	100	0	0
064	3	34	P	P	f	552.78	1	7	24	3	56	i	n	751.01	1	1000	100	1	0
064	3	35	N	N	d	1220.67	0	2	56	9	24	i	n	5675.67	1	1000	1000	1	0
064	3	36	P	P	f	784.52	1	4	24	8	56	c	n	954.1	1	1000	1000	1	0
064	3	37	N	N	f	1621.06	0	3	24	9	56	c	n	803.27	1	1000	1000	1	0
064	3	38	N	N	d	636.25	0	2	56	9	24	i	n	586.08	1	100	1000	0	0
064	3	39	P	P	f	467.51	1	3	24	8	56	c	n	820.3	1	1000	100	1	0
064	3	40	P	P	d	619.85	1	4	56	9	24	i	j	519.98	1	100	1000	0	0
064	3	41	P	P	f	636.4	1	2	24	8	56	c	n	486.13	1	100	100	0	0
064	3	42	N	N	d	452.67	0	8	24	3	56	i	j	719.82	1	100	100	1	0
064	3	43	P	P	f	436.75	1	2	56	9	24	i	j	1788.71	1	100	100	1	0
064	3	44	P	P	f	469.17	1	8	56	4	24	c	j	486.48	1	100	100	0	0
064	3	45	N	N	d	484.44	0	8	24	3	56	i	j	1187.67	1	100	1000	1	0
064	3	46	P	P	f	369.31	1	9	24	2	56	i	n	652.92	1	100	100	1	0
064	3	47	P	P	f	469.36	1	4	56	7	24	i	j	452.64	1	100	100	0	0
064	3	48	P	P	f	369.33	1	8	24	3	56	i	n	553.0	1	100	100	0	0
064	3	49	P	P	f	386.48	1	8	56	4	24	c	j	553.36	1	100	1000	0	0
064	3	50	P	P	f	485.8	1	9	56	3	24	c	j	486.24	1	1000	100	0	0
064	3	51	P	P	f	352.07	1	2	24	9	56	c	n	536.72	1	100	1000	0	0
064	3	52	P	P	f	369.69	1	7	24	3	56	i	n	620.17	1	100	1000	0	0
064	3	53	N	N	d	419.56	0	8	56	2	24	c	j	420.24	1	1000	100	1	0
064	3	54	N	N	d	334.27	0	3	24	7	56	c	n	536.15	1	1000	1000	0	0
064	3	55	N	N	d	402.12	0	7	24	2	56	i	j	619.69	1	1000	1000	0	0
064	3	56	P	P	f	453.04	1	9	56	3	24	c	j	402.8	1	1000	1000	1	0
064	3	57	P	P	f	319.32	1	2	56	9	24	i	j	520.28	1	1000	1000	0	0
064	3	58	N	N	d	536.01	0	4	24	8	56	c	n	419.6	1	100	100	1	0
064	3	59	P	P	f	719.94	1	2	56	8	24	i	j	603.5	1	1000	100	1	0
064	3	60	N	N	d	419.88	0	8	24	4	56	i	n	587.0	0	1000	100	1	0
064	3	61	N	N	d	569.63	0	8	56	3	24	c	j	470.01	1	1000	100	0	1
064	3	62	N	N	d	736.78	0	9	24	4	56	i	j	1020.43	1	100	100	0	0
064	3	63	P	P	f	736.56	1	2	56	8	24	i	j	653.25	1	1000	1000	1	0
064	3	64	N	N	d	686.74	0	3	56	8	24	i	n	1136.43	1	100	100	1	0
064	3	65	N	N	f	452.88	0	9	56	2	24	c	j	470.48	1	100	1000	0	0
064	4	1	N	N	d	1587.38	0	3	24	7	56	c	n	3305.26	1	1000	1000	-1	0
064	4	2	N	N	d	620.28	0	2	24	9	56	c	n	753.29	1	100	100	0	0
064	4	3	P	P	f	519.85	1	9	56	3	24	c	j	802.89	1	1000	1000	1	0
064	4	4	P	P	f	769.05	1	9	24	4	56	i	n	586.38	1	100	100	0	0
064	4	5	P	P	f	402.18	1	9	24	2	56	i	n	619.71	1	1000	100	0	0
064	4	6	N	N	d	686.72	0	9	56	3	24	c	j	870.16	1	1000	100	1	0
064	4	7	P	P	f	835.97	1	2	56	9	24	i	j	635.88	1	1000	100	1	0
064	4	8	N	N	d	819.55	0	3	56	8	24	i	n	486.67	1	100	100	1	0
064	4	9	P	P	f	369.44	1	4	56	8	24	i	n	953.51	0	100	1000	1	0
064	4	10	P	P	f	953.57	1	9	56	3	24	c	j	552.87	1	100	1000	0	1
064	4	11	P	P	f	652.43	1	7	24	4	56	i	n	653.82	1	1000	1000	0	0
064	4	12	N	N	d	518.96	0	3	24	8	56	c	n	920.17	1	100	1000	1	0
064	4	13	P	P	f	569.93	1	4	24	9	56	c	n	937.02	1	1000	1000	1	0
064	4	14	P	P	f	686.14	1	2	56	9	24	i	j	820.31	1	1000	100	0	0
064	4	15	P	P	f	419.37	1	4	56	7	24	i	j	854.13	1	100	1000	0	0
064	4	16	P	P	d	486.1	1	3	24	9	56	c	n	1168.69	1	100	1000	0	0
064	4	17	N	N	d	651.95	0	2	24	9	56	c	n	720.29	1	1000	1000	1	0
064	4	18	N	N	d	302.49	0	3	24	9	56	c	n	469.24	1	1000	100	0	0
064	4	19	P	P	d	402.72	1	2	24	7	56	c	n	702.84	1	100	100	1	0
064	4	20	P	P	f	485.9	1	3	24	9	56	c	n	536.54	1	100	100	0	0
064	4	21	N	N	d	453.0	0	7	56	2	24	c	j	753.73	1	1000	1000	1	0
064	4	22	P	P	f	469.63	1	3	24	7	56	c	n	603.01	1	1000	100	1	0
064	4	23	N	N	d	669.8	0	2	24	7	56	c	n	836.74	1	100	100	1	0
064	4	24	N	N	d	586.09	0	7	24	3	56	i	j	753.36	1	100	1000	0	0
064	4	25	P	P	f	534.55	1	9	24	2	56	i	j	486.52	0	1000	100	1	0
064	4	26	N	N	d	717.85	0	3	56	7	24	i	j	820.59	0	100	1000	1	1
064	4	27	P	P	f	769.85	1	2	56	9	24	i	j	753.78	1	100	100	1	1
064	4	28	P	P	f	636.4	1	9	56	3	24	c	j	468.07	1	1000	100	0	0
064	4	29	P	P	f	319.45	1	4	24	9	56	c	n	653.54	1	1000	100	0	0
064	4	30	P	P	f	586.33	1	2	56	8	24	i	j	669.69	1	1000	1000	0	0
064	4	31	P	P	f	1253.56	1	9	24	3	56	i	n	1370.49	1	100	1000	0	0
064	4	32	P	P	f	519.37	1	2	56	9	24	i	j	503.52	1	100	100	0	0
064	4	33	P	P	f	636.28	1	4	24	8	56	c	n	586.35	1	1000	1000	0	0
064	4	34	P	P	f	820.12	1	7	56	2	24	c	j	569.16	1	100	100	0	0
064	4	35	N	N	d	803.24	0	3	56	7	24	i	n	669.91	1	1000	100	1	0
064	4	36	N	N	d	402.82	0	9	56	2	24	c	j	586.74	1	100	1000	0	0
064	4	37	P	P	f	686.51	1	4	24	8	56	c	n	703.21	1	100	1000	1	0
064	4	38	N	N	d	602.66	0	9	24	3	56	i	n	669.15	0	1000	1000	1	0
064	4	39	N	N	d	502.65	0	9	24	4	56	i	j	400.84	1	1000	100	0	1
064	4	40	N	N	d	703.41	0	3	56	8	24	i	n	570.11	1	100	1000	0	0
064	4	41	P	P	f	552.89	1	9	56	4	24	c	j	453.02	1	100	100	1	0
064	4	42	N	N	d	586.2	0	7	24	2	56	i	j	954.0	1	100	100	1	0
064	4	43	N	N	d	703.16	0	4	24	7	56	c	n	770.58	1	1000	1000	0	0
064	4	44	P	P	f	603.21	1	7	56	3	24	c	j	703.06	1	100	1000	1	0
064	4	45	N	N	d	436.28	0	4	24	7	56	c	n	503.23	1	1000	100	1	0
064	4	46	N	N	d	686.54	0	7	56	3	24	c	j	470.31	1	1000	1000	0	0
064	4	47	N	N	d	602.69	0	8	24	4	56	i	j	1037.11	1	1000	1000	0	0
064	4	48	N	N	d	852.77	0	2	56	7	24	i	n	502.96	1	100	100	0	0
064	4	49	P	P	f	386.25	1	8	56	3	24	c	j	536.62	1	1000	100	1	0
064	4	50	P	P	f	286.13	1	8	56	4	24	c	j	419.69	1	1000	1000	0	0
064	4	51	N	N	d	652.28	0	7	24	2	56	i	n	403.0	0	100	1000	1	0
064	4	52	N	N	d	851.25	0	4	56	7	24	i	n	769.42	1	1000	100	0	1
064	4	53	P	P	f	485.55	1	9	24	3	56	i	n	803.27	1	100	1000	1	0
064	4	54	N	N	d	620.29	0	7	56	4	24	c	j	653.83	1	100	1000	1	0
064	4	55	N	N	d	686.51	0	2	24	9	56	c	n	701.25	1	100	1000	0	0
064	4	56	P	P	f	769.72	1	4	56	8	24	i	j	737.17	1	1000	1000	1	0
064	4	57	N	N	d	486.52	0	7	56	3	24	c	j	636.86	1	100	100	1	0
064	4	58	P	P	f	719.5	1	8	24	2	56	i	n	769.98	1	1000	1000	1	0
064	4	59	N	N	d	669.74	0	3	56	9	24	i	n	1118.74	1	1000	1000	1	0
064	4	60	N	N	d	569.42	0	7	56	4	24	c	j	702.22	1	100	100	0	0
064	4	61	N	N	d	502.69	0	9	24	3	56	i	n	634.58	0	100	100	0	0
064	4	62	P	P	f	619.78	1	9	24	4	56	i	n	486.45	1	100	100	1	1
064	4	63	N	N	d	536.64	0	9	24	2	56	i	j	469.13	1	1000	100	1	0
064	4	64	N	N	d	486.04	0	8	56	3	24	c	j	769.25	1	1000	100	0	0
064	4	65	N	N	d	703.0	0	2	56	7	24	i	n	1620.81	1	1000	1000	0	0
064	5	1	N	N	d	986.72	0	7	56	4	24	c	j	936.76	1	1000	1000	-1	0
064	5	2	P	P	f	886.89	1	8	56	3	24	c	j	720.12	1	1000	100	1	0
064	5	3	P	P	f	719.44	1	8	56	4	24	c	j	2706.12	1	1000	1000	0	0
064	5	4	N	N	d	1470.66	0	8	24	2	56	i	n	753.43	0	1000	1000	1	0
064	5	5	P	P	f	803.13	1	3	56	7	24	i	j	1404.27	1	1000	100	1	1
064	5	6	P	P	f	869.66	1	9	56	4	24	c	j	503.46	1	100	100	0	0
064	5	7	P	P	f	669.72	1	2	24	8	56	c	n	869.85	1	100	100	0	0
064	5	8	N	N	d	502.72	0	8	56	3	24	c	j	586.84	1	100	1000	1	0
064	5	9	P	P	f	1053.46	1	2	24	7	56	c	n	653.77	1	1000	1000	1	0
064	5	10	P	P	f	1470.67	1	3	56	7	24	i	j	836.51	1	100	1000	0	0
064	5	11	P	P	f	602.67	1	2	24	8	56	c	n	536.0	1	1000	100	0	0
064	5	12	N	N	d	803.58	0	4	24	7	56	c	n	3221.99	1	100	1000	1	0
064	5	13	N	N	d	419.73	0	8	24	2	56	i	j	685.78	1	1000	1000	0	0
064	5	14	N	N	d	586.62	0	4	56	7	24	i	n	937.12	1	100	1000	0	0
064	5	15	N	N	d	586.42	0	7	56	2	24	c	j	553.66	1	100	100	0	0
064	5	16	P	P	f	720.23	1	9	56	4	24	c	j	403.28	1	100	1000	1	0
064	5	17	N	N	d	769.37	0	3	24	8	56	c	n	502.91	1	1000	1000	1	0
064	5	18	P	P	f	936.47	1	9	24	4	56	i	n	1337.32	1	1000	1000	1	0
064	5	19	P	P	f	719.61	1	7	56	3	24	c	j	686.24	1	1000	100	0	0
064	5	20	N	N	d	1003.2	0	2	24	7	56	c	n	453.19	1	100	100	1	0
064	5	21	N	N	d	469.44	0	3	56	7	24	i	j	718.2	0	1000	1000	0	0
064	5	22	P	P	f	602.84	1	7	56	2	24	c	j	686.65	1	1000	1000	1	1
064	5	23	N	N	d	719.94	0	4	56	7	24	i	n	786.49	1	100	100	1	0
064	5	24	P	P	f	634.44	1	8	24	2	56	i	n	970.88	1	100	100	1	0
064	5	25	N	N	d	1137.1	0	7	56	4	24	c	j	1570.76	1	1000	1000	1	0
064	5	26	N	N	d	919.92	0	3	24	9	56	c	n	753.12	1	1000	1000	0	0
064	5	27	N	N	d	436.22	0	2	56	9	24	i	n	869.99	1	100	100	0	0
064	5	28	N	N	d	437.39	0	4	24	8	56	c	n	419.24	1	100	100	0	0
064	5	29	N	N	d	669.16	0	7	56	2	24	c	j	886.47	1	1000	100	0	0
064	5	30	P	P	f	536.51	1	4	56	9	24	i	j	803.02	1	100	1000	1	0
064	5	31	P	P	f	619.72	1	3	56	8	24	i	j	870.19	1	1000	100	0	0
064	5	32	P	P	f	468.72	1	7	24	4	56	i	n	686.02	1	1000	100	0	0
064	5	33	N	N	f	285.87	0	2	56	7	24	i	n	503.43	1	1000	1000	1	0
064	5	34	P	P	f	502.72	1	7	56	4	24	c	j	569.53	1	100	100	1	0
064	5	35	P	P	f	569.68	1	7	24	3	56	i	n	503.29	1	100	1000	0	0
064	5	36	N	N	d	669.78	0	2	56	9	24	i	n	970.22	1	100	1000	1	0
064	5	37	N	N	f	552.87	0	3	24	7	56	c	n	453.05	1	100	1000	0	0
064	5	38	P	P	f	686.47	1	2	56	8	24	i	j	819.74	1	1000	1000	1	0
064	5	39	P	P	f	569.5	1	3	24	8	56	c	n	636.58	1	100	1000	0	0
064	5	40	P	P	f	703.03	1	2	24	7	56	c	n	552.35	1	1000	1000	0	0
064	5	41	P	P	f	485.86	1	9	56	4	24	c	j	520.29	1	100	1000	0	0
064	5	42	N	N	f	370.13	0	8	56	3	24	c	j	636.56	1	100	100	1	0
064	5	43	N	N	d	302.21	0	9	56	4	24	c	j	852.64	1	1000	1000	0	0
064	5	44	P	P	f	669.59	1	7	24	2	56	i	n	636.54	1	1000	100	1	0
064	5	45	N	N	d	1420.73	0	3	56	7	24	i	j	602.99	0	1000	100	1	0
064	5	46	P	P	f	536.62	1	2	56	7	24	i	j	434.93	1	100	100	1	1
064	5	47	N	N	d	602.88	0	7	24	3	56	i	j	1103.7	1	100	1000	1	0
064	5	48	P	P	f	519.83	1	8	24	4	56	i	n	1236.84	1	100	1000	1	0
064	5	49	P	P	f	702.46	1	8	24	3	56	i	j	519.59	0	100	100	0	0
064	5	50	N	N	d	769.98	0	9	24	4	56	i	j	519.72	1	1000	100	1	1
064	5	51	N	N	d	369.26	0	3	24	8	56	c	n	869.58	1	1000	100	0	0
064	5	52	N	N	d	452.8	0	9	56	2	24	c	j	485.86	1	100	1000	0	0
064	5	53	N	N	d	502.77	0	8	24	3	56	i	j	951.21	1	100	100	0	0
064	5	54	P	P	f	502.92	1	2	24	9	56	c	n	669.6	1	100	1000	1	0
064	5	55	N	N	f	336.05	0	8	24	3	56	i	j	1036.51	1	100	100	1	0
064	5	56	P	P	f	553.09	1	2	24	9	56	c	n	635.95	1	1000	100	1	0
064	5	57	N	N	d	418.91	0	9	56	3	24	c	j	636.07	1	1000	100	1	0
064	5	58	N	N	d	1052.94	0	7	24	4	56	i	n	552.08	0	1000	100	0	0
064	5	59	P	P	f	853.46	1	3	24	9	56	c	n	418.06	1	100	100	1	1
064	5	60	P	P	f	870.08	1	2	56	9	24	i	j	1303.5	1	1000	1000	0	0
064	5	61	P	P	f	4257.13	1	8	24	3	56	i	n	753.69	1	1000	1000	0	0
064	5	62	P	P	f	886.62	1	2	56	9	24	i	j	669.49	1	100	100	0	0
064	5	63	N	N	d	720.33	0	4	24	8	56	c	n	619.94	1	1000	100	1	0
064	5	64	N	N	d	869.82	0	3	56	8	24	i	n	886.97	1	1000	100	0	0
064	5	65	N	N	d	619.79	0	7	24	2	56	i	n	586.56	0	100	1000	0	0
064	6	1	N	N	d	2471.41	0	9	56	2	24	c	j	953.71	1	100	100	-1	0
064	6	2	P	P	f	553.07	1	8	56	4	24	c	j	736.4	1	1000	1000	1	0
064	6	3	P	P	f	552.81	1	3	24	7	56	c	n	452.87	1	1000	1000	0	0
064	6	4	N	N	d	786.21	0	9	24	4	56	i	j	553.05	1	100	1000	1	0
064	6	5	P	P	f	619.44	1	2	24	7	56	c	n	753.72	1	1000	100	1	0
064	6	6	N	N	d	619.59	0	3	56	8	24	i	n	1003.76	1	1000	100	1	0
064	6	7	N	N	d	436.81	0	8	56	4	24	c	j	435.82	1	100	100	0	0
064	6	8	P	P	f	569.16	1	8	24	3	56	i	n	3139.71	1	1000	100	1	0
064	6	9	P	P	d	819.88	1	8	56	4	24	c	j	653.34	1	100	100	0	0
064	6	10	N	N	d	519.51	0	8	56	3	24	c	j	436.14	1	1000	1000	1	0
064	6	11	N	N	d	636.08	0	9	24	4	56	i	j	920.74	1	100	100	0	0
064	6	12	N	N	d	419.12	0	9	24	3	56	i	j	686.85	1	1000	100	0	0
064	6	13	N	N	d	436.02	0	2	56	8	24	i	n	853.1	1	1000	100	0	0
064	6	14	P	P	f	686.32	1	9	24	4	56	i	n	1371.3	1	100	100	1	0
064	6	15	N	N	d	586.08	0	2	56	7	24	i	n	552.98	1	100	1000	1	0
064	6	16	N	N	d	486.6	0	4	24	8	56	c	n	418.73	1	1000	100	0	0
064	6	17	N	N	d	486.2	0	2	56	9	24	i	n	552.99	1	1000	1000	0	0
064	6	18	P	P	f	686.48	1	3	24	7	56	c	n	602.88	1	1000	1000	1	0
064	6	19	P	P	f	603.34	1	8	24	2	56	i	n	687.23	1	100	1000	0	0
064	6	20	N	N	d	736.73	0	8	24	4	56	i	j	870.11	1	100	100	1	0
064	6	21	P	P	f	486.23	1	9	56	3	24	c	j	920.15	1	100	100	1	0
064	6	22	N	N	d	619.43	0	4	56	8	24	i	n	720.39	1	100	100	1	0
064	6	23	P	P	f	686.29	1	7	24	3	56	i	n	586.94	1	100	1000	1	0
064	6	24	P	P	f	586.45	1	2	24	9	56	c	n	569.1	1	100	1000	0	0
064	6	25	P	P	f	586.0	1	9	56	4	24	c	j	620.01	1	1000	1000	0	0
064	6	26	P	P	f	636.19	1	3	56	8	24	i	j	786.5	1	1000	100	0	0
064	6	27	N	N	d	769.4	0	4	24	7	56	c	n	720.65	1	1000	1000	1	0
064	6	28	P	P	f	519.48	1	2	24	7	56	c	n	502.89	1	100	1000	1	0
064	6	29	P	P	f	519.83	1	3	56	9	24	i	j	720.58	1	100	1000	0	0
064	6	30	N	N	d	552.44	0	9	56	4	24	c	j	820.58	1	1000	100	1	0
064	6	31	N	N	d	719.75	0	7	56	3	24	c	j	2805.4	1	100	1000	0	0
064	6	32	N	N	d	1186.78	0	2	56	9	24	i	n	703.17	1	100	100	0	0
064	6	33	N	N	d	452.34	0	9	24	3	56	i	j	887.5	1	100	1000	0	0
064	6	34	N	N	d	686.57	0	4	24	7	56	c	n	719.82	1	100	100	0	0
064	6	35	P	P	d	436.19	1	2	56	7	24	i	j	786.67	1	100	100	1	0
064	6	36	N	N	d	569.77	0	8	56	3	24	c	j	1170.37	1	100	1000	1	0
064	6	37	N	N	d	452.98	0	2	56	7	24	i	n	820.28	1	100	1000	0	0
064	6	38	P	P	f	502.92	1	3	56	8	24	i	j	536.55	1	1000	100	1	0
064	6	39	N	N	d	536.47	0	4	56	9	24	i	n	869.72	1	1000	1000	1	0
064	6	40	P	P	f	502.78	1	9	24	2	56	i	n	687.0	1	1000	1000	1	0
064	6	41	P	P	f	536.34	1	7	24	4	56	i	n	603.41	1	100	100	0	0
064	6	42	P	P	f	369.39	1	8	56	2	24	c	j	386.23	1	100	1000	0	0
064	6	43	P	P	f	385.94	1	4	24	8	56	c	n	636.0	1	100	100	0	0
064	6	44	P	P	f	452.85	1	3	56	7	24	i	j	619.59	1	1000	1000	0	0
064	6	45	N	N	d	1452.03	0	2	24	9	56	c	n	586.64	1	100	100	1	0
064	6	46	N	N	d	1170.41	0	4	24	8	56	c	n	586.09	1	1000	1000	0	0
064	6	47	P	P	f	619.89	1	3	24	7	56	c	n	653.36	1	100	100	1	0
064	6	48	P	P	f	3339.39	1	4	24	8	56	c	n	535.74	1	1000	100	0	0
064	6	49	P	P	f	553.82	1	8	24	2	56	i	n	553.22	1	1000	1000	0	0
064	6	50	P	P	f	719.82	1	3	56	8	24	i	j	670.09	1	100	100	0	0
064	6	51	P	P	f	736.43	1	7	56	4	24	c	j	536.75	1	1000	100	0	0
064	6	52	N	N	d	686.46	0	7	56	3	24	c	j	1120.38	1	100	100	1	0
064	6	53	N	N	d	419.31	0	8	56	2	24	c	j	469.19	1	1000	100	0	0
064	6	54	P	P	f	569.8	1	3	56	8	24	i	j	600.92	1	1000	1000	1	0
064	6	55	N	N	d	569.95	0	9	24	4	56	i	j	619.79	1	1000	1000	1	0
064	6	56	N	N	f	469.45	0	2	24	8	56	c	n	535.85	1	100	1000	0	0
064	6	57	N	N	d	552.79	0	8	56	4	24	c	j	520.1	1	1000	1000	0	0
064	6	58	N	N	d	1637.55	0	7	24	3	56	i	j	1003.13	1	1000	1000	0	0
064	6	59	P	P	f	1320.48	1	7	56	2	24	c	j	753.13	1	1000	100	1	0
064	6	60	N	N	d	786.83	0	9	24	4	56	i	j	1671.45	1	1000	100	1	0
064	6	61	P	P	f	518.99	1	3	56	8	24	i	j	536.97	1	100	1000	1	0
064	6	62	N	N	d	719.52	0	4	24	7	56	c	n	502.92	1	100	1000	1	0
064	6	63	P	P	f	635.97	1	7	56	2	24	c	j	519.45	1	100	1000	1	0
064	6	64	P	P	f	2304.93	1	7	24	4	56	i	n	619.21	1	1000	100	0	0
064	6	65	N	N	d	586.17	0	2	24	7	56	c	n	669.67	1	1000	100	1	0
