subj	block	trial	task_cue	task	choice_resp	choiceRT	choice_acc	topnum	topsize	botnum	botsize	cong	task_resp	taskRT	task_acc	RSI	CSI	altRep	E1
068	1	1	P	P	f	704.28	1	2	56	7	24	i	j	803.72	1	100	100	-1	0
068	1	2	P	P	f	620.39	1	4	24	7	56	c	n	1054.62	1	1000	1000	0	0
068	1	3	P	P	f	887.09	1	3	24	8	56	c	n	569.31	1	100	1000	0	0
068	1	4	N	N	d	586.11	0	7	24	2	56	i	j	653.8	1	100	100	1	0
068	1	5	P	P	f	734.56	1	3	56	9	24	i	j	803.31	1	100	100	1	0
068	1	6	N	N	d	653.77	0	9	56	4	24	c	j	585.87	1	1000	100	1	0
068	1	7	N	N	d	736.84	0	3	24	9	56	c	n	500.64	1	1000	1000	0	0
068	1	8	N	N	d	603.54	0	7	56	4	24	c	j	803.56	1	1000	1000	0	0
068	1	9	P	P	f	1404.0	1	7	24	2	56	i	n	620.42	1	100	1000	1	0
068	1	10	P	P	f	737.27	1	7	24	4	56	i	n	436.33	1	1000	1000	0	0
068	1	11	P	P	f	719.93	1	3	56	8	24	i	j	553.15	1	1000	100	0	0
068	1	12	N	N	d	620.1	0	7	56	2	24	c	j	536.74	1	1000	1000	1	0
068	1	13	N	N	d	502.69	0	4	24	9	56	c	n	653.52	1	1000	100	0	0
068	1	14	N	N	d	754.06	0	3	56	9	24	i	n	870.9	1	1000	100	0	0
068	1	15	N	N	d	984.91	0	4	56	7	24	i	n	586.61	1	100	100	0	0
068	1	16	N	N	d	569.96	0	8	24	2	56	i	j	803.29	1	1000	1000	0	0
068	1	17	P	P	f	586.52	1	8	56	3	24	c	j	420.33	1	1000	1000	1	0
068	1	18	N	N	d	670.22	0	8	24	4	56	i	n	669.67	0	100	1000	1	0
068	1	19	N	N	d	1204.49	0	2	24	8	56	c	n	654.01	1	100	100	0	1
068	1	20	P	P	f	667.56	1	3	24	8	56	c	n	486.73	1	1000	1000	1	0
068	1	21	P	P	f	970.23	1	2	56	7	24	i	j	602.61	1	100	1000	0	0
068	1	22	N	N	d	619.71	0	9	56	3	24	c	j	1187.03	1	100	1000	1	0
068	1	23	P	P	f	1003.98	1	8	56	4	24	c	j	435.77	1	100	1000	1	0
068	1	24	P	P	f	786.88	1	7	24	3	56	i	n	918.05	1	1000	100	0	0
068	1	25	N	N	d	569.29	0	7	24	4	56	i	j	1018.92	1	1000	1000	1	0
068	1	26	P	P	f	620.08	1	7	56	3	24	c	j	719.56	1	1000	100	1	0
068	1	27	P	P	f	653.48	1	8	24	2	56	i	n	420.29	1	100	1000	0	0
068	1	28	N	N	d	719.9	0	3	56	8	24	i	n	770.33	1	1000	100	1	0
068	1	29	N	N	d	470.51	0	7	56	4	24	c	j	520.08	1	100	1000	0	0
068	1	30	N	N	d	637.24	0	8	24	2	56	i	j	569.9	1	100	1000	0	0
068	1	31	P	P	f	586.93	1	8	24	3	56	i	n	419.29	1	100	100	1	0
068	1	32	N	N	d	503.75	0	2	56	7	24	i	n	686.46	1	100	100	1	0
068	1	33	N	N	d	536.98	0	8	24	4	56	i	j	620.12	1	100	100	0	0
068	1	34	P	P	f	554.2	1	3	24	7	56	c	n	1186.92	1	100	1000	1	0
068	1	35	N	N	d	604.04	0	4	24	7	56	c	n	503.11	1	100	100	1	0
068	1	36	P	P	f	586.68	1	2	56	7	24	i	j	537.03	1	100	1000	1	0
068	1	37	N	N	d	637.32	0	3	56	9	24	i	n	1120.79	1	1000	1000	1	0
068	1	38	P	P	f	420.0	1	8	24	2	56	i	n	687.47	1	1000	1000	1	0
068	1	39	N	N	d	486.98	0	4	56	9	24	i	n	720.47	1	100	1000	1	0
068	1	40	N	N	d	470.37	0	2	56	7	24	i	n	486.1	1	100	1000	0	0
068	1	41	N	N	d	552.79	0	3	56	7	24	i	n	820.22	1	1000	1000	0	0
068	1	42	N	N	d	501.34	0	4	24	9	56	c	n	420.08	1	100	1000	0	0
068	1	43	P	P	f	936.9	1	2	24	7	56	c	n	1054.37	1	1000	100	1	0
068	1	44	P	P	f	687.44	1	9	56	4	24	c	j	553.5	1	100	100	0	0
068	1	45	N	N	d	553.74	0	3	24	8	56	c	n	569.98	1	100	1000	1	0
068	1	46	N	N	d	519.73	0	7	56	4	24	c	j	718.34	1	1000	100	0	0
068	1	47	P	P	f	786.42	1	2	56	7	24	i	j	569.75	1	1000	1000	1	0
068	1	48	P	P	f	635.87	1	4	56	7	24	i	j	503.36	1	1000	1000	0	0
068	1	49	P	P	f	720.64	1	8	56	2	24	c	j	519.61	1	1000	100	0	0
068	1	50	N	N	d	502.96	0	8	24	3	56	i	j	786.08	1	1000	100	1	0
068	1	51	P	P	f	637.71	1	7	56	2	24	c	j	487.2	1	100	100	1	0
068	1	52	N	N	d	603.75	0	4	24	9	56	c	n	486.61	1	1000	100	1	0
068	1	53	N	N	d	786.63	0	8	24	3	56	i	j	1036.8	1	1000	100	0	0
068	1	54	P	P	f	736.22	1	2	56	8	24	i	j	1070.04	1	1000	100	1	0
068	1	55	P	P	f	653.91	1	9	24	4	56	i	n	486.54	1	100	100	0	0
068	1	56	N	N	d	771.3	0	2	24	9	56	c	n	519.92	1	1000	1000	1	0
068	1	57	P	P	f	837.37	1	3	24	8	56	c	n	453.35	1	100	100	1	0
068	1	58	P	P	f	520.14	1	2	56	8	24	i	j	418.65	1	100	100	0	0
068	1	59	P	P	f	721.03	1	8	56	4	24	c	j	452.32	1	1000	1000	0	0
068	1	60	N	N	d	586.69	0	8	56	3	24	c	j	686.42	1	100	100	1	0
068	1	61	N	N	d	469.79	0	8	56	2	24	c	j	603.59	1	100	100	0	0
068	1	62	P	P	f	784.82	1	8	24	3	56	i	n	469.7	1	1000	100	1	0
068	1	63	P	P	f	553.66	1	2	24	7	56	c	n	470.2	1	100	100	0	0
068	1	64	P	P	f	686.84	1	3	24	8	56	c	n	470.46	1	1000	100	0	0
068	1	65	P	P	f	453.34	1	8	56	4	24	c	j	453.61	1	100	1000	0	0
068	2	1	P	P	f	736.6	1	3	56	7	24	i	j	636.3	1	100	100	-1	0
068	2	2	N	N	d	936.7	0	7	56	4	24	c	j	603.29	1	1000	100	1	0
068	2	3	N	N	d	586.57	0	3	56	9	24	i	n	570.25	1	100	100	0	0
068	2	4	N	N	d	837.65	0	4	24	7	56	c	n	603.28	1	1000	1000	0	0
068	2	5	N	N	d	570.65	0	3	24	7	56	c	n	567.42	1	1000	100	0	0
068	2	6	N	N	d	503.16	0	8	24	2	56	i	j	520.5	1	1000	1000	0	0
068	2	7	N	N	d	550.99	0	8	24	3	56	i	j	686.39	1	100	100	0	0
068	2	8	N	N	d	486.49	0	2	56	9	24	i	n	636.32	1	1000	100	0	0
068	2	9	N	N	d	770.72	0	3	56	9	24	i	n	570.61	1	100	1000	0	0
068	2	10	N	N	d	536.61	0	8	56	2	24	c	j	516.89	1	1000	100	0	0
068	2	11	P	P	f	653.24	1	8	56	3	24	c	j	470.61	1	100	1000	1	0
068	2	12	P	P	f	587.02	1	9	56	4	24	c	j	453.31	1	1000	1000	0	0
068	2	13	P	P	f	786.85	1	3	24	7	56	c	n	452.9	1	100	100	0	0
068	2	14	N	N	d	552.9	0	8	24	4	56	i	j	1203.8	1	1000	1000	1	0
068	2	15	P	P	f	737.01	1	8	24	2	56	i	n	553.31	1	1000	1000	1	0
068	2	16	P	P	f	620.04	1	4	56	7	24	i	j	687.81	1	100	100	0	0
068	2	17	N	N	d	486.66	0	2	56	7	24	i	n	970.81	1	1000	100	1	0
068	2	18	P	P	f	552.62	1	8	24	3	56	i	n	1004.14	1	100	100	1	0
068	2	19	P	P	f	803.33	1	9	56	2	24	c	j	837.25	1	1000	100	0	0
068	2	20	N	N	d	453.68	0	9	56	4	24	c	j	517.93	1	100	100	1	0
068	2	21	P	P	f	687.29	1	3	24	7	56	c	n	519.08	1	1000	1000	1	0
068	2	22	P	P	f	619.64	1	7	24	2	56	i	n	437.56	1	1000	1000	0	0
068	2	23	N	N	d	653.57	0	4	56	7	24	i	n	603.91	1	100	1000	1	0
068	2	24	P	P	f	736.71	1	7	56	2	24	c	j	803.44	1	1000	100	1	0
068	2	25	N	N	d	536.4	0	3	56	8	24	i	n	537.04	1	100	100	1	0
068	2	26	N	N	d	603.99	0	9	56	2	24	c	j	837.33	1	100	1000	0	0
068	2	27	N	N	d	519.77	0	8	24	4	56	i	j	603.87	1	1000	100	0	0
068	2	28	N	N	d	503.17	0	2	24	8	56	c	n	586.08	1	100	100	0	0
068	2	29	N	N	d	586.73	0	9	56	3	24	c	j	469.72	1	100	100	0	0
068	2	30	P	P	f	701.32	1	2	56	8	24	i	j	603.4	1	100	1000	1	0
068	2	31	P	P	f	936.93	1	3	24	9	56	c	n	719.96	1	1000	100	0	0
068	2	32	P	P	f	1003.43	1	4	56	8	24	i	j	452.75	1	1000	100	0	0
068	2	33	P	P	f	653.64	1	3	56	9	24	i	j	603.82	1	1000	1000	0	0
068	2	34	N	N	d	636.24	0	2	56	9	24	i	n	419.98	1	1000	1000	1	0
068	2	35	N	N	d	636.3	0	4	56	8	24	i	n	903.43	1	1000	1000	0	0
068	2	36	P	P	f	586.78	1	3	24	7	56	c	n	502.77	1	100	100	1	0
068	2	37	P	P	f	753.68	1	2	24	7	56	c	n	469.7	1	1000	1000	0	0
068	2	38	P	P	f	503.18	1	8	24	3	56	i	n	903.03	1	100	1000	0	0
068	2	39	N	N	d	720.12	0	8	24	2	56	i	j	686.59	1	100	100	1	0
068	2	40	P	P	f	719.6	1	3	24	7	56	c	n	386.1	1	1000	100	1	0
068	2	41	N	N	d	836.87	0	2	24	8	56	c	n	1354.81	1	1000	1000	1	0
068	2	42	P	P	f	670.17	1	7	24	3	56	i	n	420.39	1	1000	100	1	0
068	2	43	P	P	d	453.3	1	9	24	2	56	i	n	1403.86	1	100	100	0	0
068	2	44	P	P	f	484.64	1	7	24	4	56	i	n	887.19	1	1000	100	0	0
068	2	45	P	P	f	453.85	1	3	56	7	24	i	j	1071.06	1	100	1000	0	0
068	2	46	P	P	f	887.14	1	8	56	4	24	c	j	502.78	1	100	1000	0	0
068	2	47	N	N	d	768.15	0	8	24	2	56	i	j	820.2	1	1000	100	1	0
068	2	48	P	P	f	569.86	1	3	56	9	24	i	j	453.52	1	100	100	1	0
068	2	49	N	N	d	603.07	0	9	56	2	24	c	j	437.02	1	1000	1000	1	0
068	2	50	P	P	f	603.4	1	8	24	4	56	i	n	904.17	1	100	1000	1	0
068	2	51	N	N	d	501.13	0	3	24	7	56	c	n	701.39	1	100	1000	1	0
068	2	52	N	N	d	654.02	0	4	24	9	56	c	n	502.62	1	100	1000	0	0
068	2	53	P	P	f	801.14	1	2	56	8	24	i	j	603.89	1	1000	1000	1	0
068	2	54	P	P	f	619.81	1	8	56	4	24	c	j	520.81	1	100	100	0	0
068	2	55	N	N	d	619.99	0	3	24	8	56	c	n	453.38	1	1000	100	1	0
068	2	56	P	P	f	669.89	1	2	56	8	24	i	j	1085.19	1	1000	100	1	0
068	2	57	P	P	f	620.42	1	3	24	9	56	c	n	486.52	1	100	1000	0	0
068	2	58	N	N	d	670.55	0	2	24	9	56	c	n	537.23	1	100	100	1	0
068	2	59	P	P	f	702.62	1	4	24	9	56	c	n	937.69	1	100	1000	1	0
068	2	60	N	N	d	586.54	0	7	56	3	24	c	j	1203.82	1	100	1000	1	0
068	2	61	N	N	d	987.59	0	7	24	2	56	i	j	753.72	1	100	1000	0	0
068	2	62	P	P	f	602.88	1	8	56	4	24	c	j	586.3	1	1000	1000	1	0
068	2	63	N	N	d	470.05	0	7	24	2	56	i	j	919.53	1	100	1000	1	0
068	2	64	N	N	d	620.72	0	8	56	4	24	c	j	919.87	1	1000	1000	0	0
068	2	65	P	P	f	603.25	1	9	56	2	24	c	j	553.9	1	100	100	1	0
068	3	1	P	P	f	586.43	1	8	24	4	56	i	n	953.47	1	1000	1000	-1	0
068	3	2	N	N	d	854.06	0	7	24	3	56	i	j	586.56	1	1000	100	1	0
068	3	3	N	N	d	536.64	0	9	56	4	24	c	j	703.76	1	1000	1000	0	0
068	3	4	N	N	d	687.14	0	3	24	9	56	c	n	503.99	1	1000	1000	0	0
068	3	5	P	P	f	534.29	1	4	56	8	24	i	j	803.51	1	1000	1000	1	0
068	3	6	P	P	f	736.51	1	2	56	7	24	i	j	569.41	1	1000	1000	0	0
068	3	7	P	P	f	669.73	1	3	56	8	24	i	j	569.74	1	100	1000	0	0
068	3	8	N	N	d	619.85	0	7	24	2	56	i	j	636.4	1	100	100	1	0
068	3	9	P	P	f	620.12	1	7	24	3	56	i	n	1136.9	1	100	1000	1	0
068	3	10	N	N	d	786.2	0	9	56	4	24	c	j	987.88	1	1000	1000	1	0
068	3	11	P	P	f	887.28	1	9	24	2	56	i	n	686.84	1	1000	1000	1	0
068	3	12	P	P	f	703.39	1	3	24	8	56	c	n	753.28	1	1000	100	0	0
068	3	13	P	P	f	636.72	1	8	24	4	56	i	n	721.14	1	100	1000	0	0
068	3	14	N	N	d	620.92	0	2	56	9	24	i	n	619.93	1	100	1000	1	0
068	3	15	P	P	f	834.29	1	7	56	3	24	c	j	821.54	1	100	100	1	0
068	3	16	N	N	d	553.81	0	8	24	4	56	i	j	1121.14	1	100	1000	1	0
068	3	17	N	N	d	520.88	0	8	24	3	56	i	j	603.34	1	100	100	0	0
068	3	18	P	P	f	586.37	1	7	24	2	56	i	n	453.28	1	1000	100	1	0
068	3	19	N	N	d	553.66	0	3	24	9	56	c	n	636.74	1	100	100	1	0
068	3	20	N	N	d	653.36	0	8	56	4	24	c	j	653.49	1	1000	100	0	0
068	3	21	P	P	f	835.97	1	3	56	7	24	i	j	570.17	1	1000	100	1	0
068	3	22	N	N	d	603.44	0	7	24	4	56	i	j	587.25	1	1000	1000	1	0
068	3	23	P	P	f	552.52	1	2	24	9	56	c	n	750.97	1	100	1000	1	0
068	3	24	N	N	d	453.83	0	8	56	3	24	c	j	536.46	1	100	100	1	0
068	3	25	N	N	d	536.1	0	8	24	4	56	i	j	1234.84	1	1000	1000	0	0
068	3	26	N	N	d	520.15	0	2	24	7	56	c	n	987.19	1	100	1000	0	0
068	3	27	P	P	f	669.61	1	7	24	4	56	i	n	636.53	1	100	100	1	0
068	3	28	N	N	d	1337.54	0	2	56	7	24	i	n	952.52	1	1000	100	1	0
068	3	29	N	N	d	737.27	0	3	56	7	24	i	n	520.63	1	1000	1000	0	0
068	3	30	N	N	d	587.18	0	4	56	9	24	i	n	569.22	1	1000	100	0	0
068	3	31	N	N	d	469.51	0	3	56	7	24	i	n	603.33	1	100	100	0	0
068	3	32	N	N	d	536.2	0	7	24	2	56	i	j	653.19	1	100	1000	0	0
068	3	33	N	N	d	670.89	0	4	24	8	56	c	n	853.4	1	100	100	0	0
068	3	34	N	N	d	452.74	0	7	56	3	24	c	j	537.29	1	100	1000	0	0
068	3	35	P	P	f	536.38	1	4	24	8	56	c	n	470.12	1	1000	100	1	0
068	3	36	P	P	f	386.43	1	8	56	2	24	c	j	452.86	1	100	100	0	0
068	3	37	P	P	f	483.86	1	4	56	7	24	i	j	870.35	1	1000	100	0	0
068	3	38	P	P	f	403.51	1	8	56	2	24	c	j	719.43	1	1000	1000	0	0
068	3	39	P	P	f	604.09	1	3	24	7	56	c	n	702.99	1	100	1000	0	0
068	3	40	P	P	f	753.63	1	8	24	2	56	i	n	703.34	1	1000	1000	0	0
068	3	41	P	P	f	484.21	1	4	24	7	56	c	n	553.48	1	100	100	0	0
068	3	42	P	P	f	537.2	1	2	24	7	56	c	n	552.76	1	1000	1000	0	0
068	3	43	N	N	d	601.16	0	4	24	7	56	c	n	667.24	1	1000	100	1	0
068	3	44	N	N	d	469.88	0	9	24	3	56	i	j	1053.22	1	1000	100	0	0
068	3	45	P	P	d	503.63	1	2	56	8	24	i	j	487.0	1	100	1000	1	0
068	3	46	N	N	d	920.53	0	9	56	3	24	c	j	987.34	1	1000	100	1	0
068	3	47	P	P	f	536.62	1	2	24	8	56	c	n	603.77	1	100	100	1	0
068	3	48	P	P	f	636.89	1	8	24	3	56	i	n	603.19	1	100	100	0	0
068	3	49	P	P	f	669.59	1	9	56	2	24	c	j	552.81	1	100	1000	0	0
068	3	50	P	P	f	553.67	1	4	56	9	24	i	j	570.24	1	100	100	0	0
068	3	51	P	P	f	883.7	1	8	24	2	56	i	n	503.63	1	1000	100	0	0
068	3	52	N	N	d	587.49	0	3	56	7	24	i	n	936.92	1	100	100	1	0
068	3	53	N	N	d	436.59	0	2	56	9	24	i	n	820.14	1	100	1000	0	0
068	3	54	P	P	f	1387.72	1	4	24	9	56	c	n	518.6	1	1000	1000	1	0
068	3	55	N	N	d	1170.53	0	3	24	9	56	c	n	502.57	1	1000	1000	1	0
068	3	56	P	P	f	520.38	1	2	56	7	24	i	j	453.76	1	100	100	1	0
068	3	57	N	N	d	586.33	0	8	56	3	24	c	j	636.67	1	100	1000	1	0
068	3	58	P	P	f	553.51	1	8	56	2	24	c	j	920.61	1	100	1000	1	0
068	3	59	N	N	d	1020.12	0	3	56	9	24	i	n	1354.54	1	1000	1000	1	0
068	3	60	P	P	f	886.76	1	9	56	4	24	c	j	452.53	1	1000	100	1	0
068	3	61	P	P	f	654.02	1	8	56	3	24	c	j	652.38	1	1000	100	0	0
068	3	62	N	N	d	553.34	0	4	24	7	56	c	n	570.62	1	100	1000	1	0
068	3	63	N	N	d	670.47	0	9	56	3	24	c	j	901.35	1	100	100	0	0
068	3	64	N	N	d	586.97	0	2	24	9	56	c	n	486.94	1	1000	100	0	0
068	3	65	P	P	f	636.68	1	8	56	3	24	c	j	570.42	1	1000	1000	1	0
068	4	1	N	N	d	569.74	0	9	56	4	24	c	j	687.14	1	1000	1000	-1	0
068	4	2	N	N	d	553.61	0	9	56	2	24	c	j	553.64	1	1000	100	0	0
068	4	3	N	N	d	570.04	0	4	24	9	56	c	n	569.52	1	1000	100	0	0
068	4	4	P	P	f	935.12	1	2	56	8	24	i	j	821.06	1	1000	1000	1	0
068	4	5	N	N	d	586.33	0	3	24	7	56	c	n	650.81	1	100	100	1	0
068	4	6	P	P	f	586.72	1	8	56	2	24	c	j	820.61	1	1000	100	1	0
068	4	7	P	P	f	601.27	1	4	56	9	24	i	j	652.88	1	100	1000	0	0
068	4	8	N	N	d	386.54	0	3	24	7	56	c	n	487.12	1	100	1000	1	0
068	4	9	P	P	f	653.33	1	4	24	7	56	c	n	637.3	1	100	100	1	0
068	4	10	P	P	f	486.64	1	3	24	7	56	c	n	436.02	1	100	100	0	0
068	4	11	P	P	f	603.81	1	4	56	8	24	i	j	920.31	1	1000	1000	0	0
068	4	12	P	P	f	687.39	1	7	56	3	24	c	j	703.19	1	1000	100	0	0
068	4	13	P	P	f	586.54	1	9	56	4	24	c	j	536.58	1	1000	1000	0	0
068	4	14	P	P	f	470.03	1	7	56	3	24	c	j	571.02	1	100	100	0	0
068	4	15	N	N	d	603.13	0	8	24	2	56	i	j	887.21	1	1000	100	1	0
068	4	16	N	N	d	403.97	0	4	56	7	24	i	n	820.14	1	100	1000	0	0
068	4	17	N	N	d	386.15	0	9	56	3	24	c	j	503.58	1	100	1000	0	0
068	4	18	N	N	d	553.39	0	2	24	7	56	c	n	704.44	1	1000	1000	0	0
068	4	19	P	P	f	836.49	1	4	24	8	56	c	n	1637.61	1	1000	1000	1	0
068	4	20	N	N	d	569.97	0	8	56	2	24	c	j	553.47	1	100	1000	1	0
068	4	21	N	N	d	753.96	0	9	24	4	56	i	j	670.63	1	1000	1000	0	0
068	4	22	N	N	d	670.49	0	9	24	2	56	i	j	1270.77	1	1000	100	0	0
068	4	23	P	P	f	652.96	1	9	24	3	56	i	n	570.14	1	1000	1000	1	0
068	4	24	N	N	d	586.25	0	4	56	8	24	i	n	1370.83	1	100	1000	1	0
068	4	25	P	P	f	553.04	1	3	56	8	24	i	j	853.09	1	100	100	1	0
068	4	26	N	N	d	670.25	0	4	56	8	24	i	n	1119.3	1	1000	100	1	0
068	4	27	N	N	d	553.22	0	2	24	7	56	c	n	570.55	1	100	100	0	0
068	4	28	N	N	d	420.03	0	7	24	3	56	i	j	703.14	1	100	1000	0	0
068	4	29	N	N	d	637.67	0	4	56	7	24	i	n	1003.4	1	1000	1000	0	0
068	4	30	P	P	f	736.16	1	7	56	2	24	c	j	470.01	1	1000	1000	1	0
068	4	31	N	N	d	533.45	0	9	56	3	24	c	j	704.34	1	1000	100	1	0
068	4	32	N	N	d	470.0	0	4	56	7	24	i	n	570.3	1	100	100	0	0
068	4	33	P	P	f	603.66	1	8	24	2	56	i	n	903.93	1	100	1000	1	0
068	4	34	P	P	f	887.49	1	7	24	4	56	i	n	1070.94	1	100	1000	0	0
068	4	35	N	N	d	636.29	0	2	56	9	24	i	n	1120.82	1	1000	1000	1	0
068	4	36	P	P	f	670.89	1	7	24	4	56	i	n	436.39	1	1000	100	1	0
068	4	37	P	P	f	503.01	1	7	24	2	56	i	n	552.71	1	100	100	0	0
068	4	38	P	P	f	403.4	1	7	56	3	24	c	j	551.07	1	100	1000	0	0
068	4	39	P	P	f	653.09	1	4	56	7	24	i	j	470.1	1	1000	100	0	0
068	4	40	P	P	f	603.25	1	2	24	8	56	c	n	537.04	1	1000	1000	0	0
068	4	41	P	P	f	837.69	1	7	24	4	56	i	n	503.42	1	1000	1000	0	0
068	4	42	P	P	f	536.77	1	8	24	3	56	i	n	536.77	1	1000	100	0	0
068	4	43	P	P	f	420.06	1	4	24	8	56	c	n	536.36	1	100	1000	0	0
068	4	44	N	N	d	737.45	0	7	56	2	24	c	j	553.98	1	100	100	1	0
068	4	45	N	N	d	503.35	0	9	56	3	24	c	j	483.85	1	1000	1000	0	0
068	4	46	N	N	d	619.42	0	9	56	4	24	c	j	536.15	1	100	100	0	0
068	4	47	P	P	f	817.65	1	8	56	3	24	c	j	487.07	1	100	100	1	0
068	4	48	N	N	d	687.73	0	8	56	2	24	c	j	1070.26	1	1000	1000	1	0
068	4	49	N	N	d	517.37	0	3	24	9	56	c	n	518.46	1	100	1000	0	0
068	4	50	N	N	d	603.29	0	4	56	9	24	i	n	870.18	1	1000	100	0	0
068	4	51	P	P	f	553.68	1	8	56	3	24	c	j	603.5	1	100	1000	1	0
068	4	52	N	N	d	670.14	0	9	24	4	56	i	j	985.07	1	100	100	1	0
068	4	53	P	P	f	570.11	1	9	24	3	56	i	n	569.96	1	100	100	1	0
068	4	54	P	P	f	820.85	1	2	24	9	56	c	n	1036.99	1	1000	100	0	0
068	4	55	N	N	d	503.49	0	4	56	9	24	i	n	602.67	1	100	100	1	0
068	4	56	P	P	f	670.13	1	3	24	7	56	c	n	817.57	1	1000	100	1	0
068	4	57	P	P	f	653.46	1	4	56	8	24	i	j	1120.87	1	100	100	0	0
068	4	58	N	N	d	585.81	0	8	24	3	56	i	j	1287.11	1	100	1000	1	0
068	4	59	N	N	d	536.4	0	8	24	2	56	i	j	836.3	1	100	100	0	0
068	4	60	P	P	f	636.64	1	4	56	9	24	i	j	687.02	1	1000	100	1	0
068	4	61	N	N	d	584.56	0	7	24	3	56	i	j	620.29	1	1000	1000	1	0
068	4	62	P	P	f	586.63	1	2	24	7	56	c	n	387.37	1	100	1000	1	0
068	4	63	N	N	d	703.56	0	3	24	8	56	c	n	1471.31	1	1000	1000	1	0
068	4	64	P	P	f	636.46	1	4	56	9	24	i	j	754.38	1	100	1000	1	0
068	4	65	N	N	d	853.75	0	3	24	8	56	c	n	486.3	1	1000	100	1	0
068	5	1	N	N	d	720.78	0	9	56	3	24	c	j	887.52	1	1000	1000	-1	0
068	5	2	P	P	f	619.43	1	7	24	2	56	i	n	670.82	1	100	100	1	0
068	5	3	N	N	d	620.25	0	4	24	8	56	c	n	603.86	1	100	1000	1	0
068	5	4	N	N	d	519.95	0	2	56	7	24	i	n	1020.13	1	100	100	0	0
068	5	5	P	P	f	487.39	1	4	56	8	24	i	n	653.86	0	100	100	1	0
068	5	6	P	P	f	1752.39	1	7	24	2	56	i	n	637.61	1	100	1000	0	1
068	5	7	N	N	d	570.02	0	7	56	3	24	c	j	803.63	1	100	1000	1	0
068	5	8	N	N	d	1337.41	0	4	56	8	24	i	n	653.44	1	1000	1000	0	0
068	5	9	N	N	d	636.78	0	8	24	2	56	i	j	670.25	1	100	100	0	0
068	5	10	P	P	f	703.34	1	4	24	7	56	c	n	485.91	1	1000	100	1	0
068	5	11	P	P	f	787.06	1	8	24	2	56	i	n	519.68	1	100	100	0	0
068	5	12	P	P	f	470.07	1	3	24	8	56	c	n	484.9	1	100	1000	0	0
068	5	13	N	N	d	619.91	0	7	24	2	56	i	j	552.73	1	100	100	1	0
068	5	14	N	N	d	854.01	0	9	56	4	24	c	j	637.31	1	1000	100	0	0
068	5	15	P	P	d	485.96	1	9	56	3	24	c	j	1153.71	1	1000	1000	1	0
068	5	16	N	N	d	704.02	0	4	24	9	56	c	n	1220.09	1	1000	1000	1	0
068	5	17	N	N	d	620.63	0	9	24	2	56	i	j	1087.41	1	1000	100	0	0
068	5	18	N	N	d	853.75	0	8	24	3	56	i	j	636.89	1	1000	1000	0	0
068	5	19	P	P	f	737.12	1	4	56	7	24	i	j	1421.19	1	1000	1000	1	0
068	5	20	P	P	f	603.43	1	7	56	3	24	c	j	487.1	1	1000	100	0	0
068	5	21	N	N	d	570.37	0	2	24	9	56	c	n	653.91	1	100	100	1	0
068	5	22	P	P	f	637.28	1	4	24	9	56	c	n	535.66	1	100	100	1	0
068	5	23	N	N	d	886.94	0	8	56	3	24	c	j	486.82	1	1000	1000	1	0
068	5	24	P	P	f	536.26	1	7	24	2	56	i	j	584.75	0	100	1000	1	0
068	5	25	P	P	f	687.28	1	9	56	3	24	c	j	1070.55	1	1000	1000	0	1
068	5	26	P	P	f	719.6	1	4	24	9	56	c	n	654.09	1	1000	100	0	0
068	5	27	N	N	d	536.94	0	9	24	2	56	i	j	1054.16	1	100	1000	1	0
068	5	28	N	N	d	520.25	0	3	24	8	56	c	n	503.48	1	100	100	0	0
068	5	29	N	N	d	452.98	0	4	56	9	24	i	n	1187.82	1	100	1000	0	0
068	5	30	N	N	d	520.29	0	9	56	2	24	c	j	637.01	1	100	1000	0	0
068	5	31	P	P	f	736.96	1	7	56	4	24	c	j	470.06	1	100	100	1	0
068	5	32	N	N	d	687.04	0	8	56	2	24	c	j	786.97	1	1000	100	1	0
068	5	33	N	N	d	687.1	0	8	56	3	24	c	j	586.37	1	1000	1000	0	0
068	5	34	P	P	f	803.4	1	4	24	8	56	c	n	837.4	1	1000	1000	1	0
068	5	35	N	N	d	619.41	0	3	56	7	24	i	n	887.58	1	1000	100	1	0
068	5	36	N	N	d	669.6	0	2	24	8	56	c	n	520.77	1	1000	1000	0	0
068	5	37	N	N	d	500.41	0	4	24	8	56	c	n	553.19	1	100	1000	0	0
068	5	38	P	P	f	653.08	1	2	56	7	24	i	j	520.16	1	1000	100	1	0
068	5	39	P	P	f	586.73	1	9	56	4	24	c	j	583.62	1	100	1000	0	0
068	5	40	P	P	f	719.86	1	3	56	8	24	i	j	720.09	1	100	100	0	0
068	5	41	N	N	d	669.94	0	8	24	2	56	i	n	569.42	0	1000	100	1	0
068	5	42	N	N	d	591.4	0	4	24	8	56	c	n	521.11	1	1000	100	0	1
068	5	43	P	P	f	1121.52	1	2	56	9	24	i	j	1138.14	1	100	1000	1	0
068	5	44	P	P	f	704.55	1	8	24	4	56	i	n	988.28	1	1000	100	0	0
068	5	45	P	P	f	554.48	1	2	24	7	56	c	n	437.52	1	100	100	0	0
068	5	46	N	N	d	570.41	0	3	56	7	24	i	n	586.96	1	100	100	1	0
068	5	47	N	N	d	520.86	0	9	56	4	24	c	j	637.89	1	100	100	0	0
068	5	48	P	P	f	703.78	1	2	24	9	56	c	n	904.76	1	100	1000	1	0
068	5	49	N	N	d	486.92	0	4	56	9	24	i	n	670.29	1	100	1000	1	0
068	5	50	N	N	d	904.8	0	2	56	7	24	i	n	1287.72	1	1000	100	0	0
068	5	51	P	P	f	603.92	1	7	24	3	56	i	n	1003.98	1	1000	1000	1	0
068	5	52	N	N	d	888.8	0	2	56	7	24	i	n	1189.01	1	1000	1000	1	0
068	5	53	P	P	f	571.06	1	8	56	3	24	c	j	437.12	1	100	1000	1	0
068	5	54	P	P	f	1138.24	1	8	24	4	56	i	n	871.82	1	1000	1000	0	0
068	5	55	P	P	f	688.23	1	3	56	9	24	i	j	987.96	1	1000	100	0	0
068	5	56	N	N	d	1054.87	0	4	24	8	56	c	n	504.56	1	1000	100	1	0
068	5	57	N	N	d	521.08	0	9	24	3	56	i	j	504.17	1	100	1000	0	0
068	5	58	P	P	f	871.24	1	9	24	2	56	i	n	772.15	1	1000	100	1	0
068	5	59	N	N	d	504.44	0	9	56	3	24	c	j	604.0	1	100	100	1	0
068	5	60	P	P	f	905.1	1	7	56	4	24	c	j	1188.07	1	1000	100	1	0
068	5	61	P	P	f	704.38	1	3	56	8	24	i	j	1021.08	1	100	1000	0	0
068	5	62	P	P	f	787.48	1	2	24	9	56	c	n	487.19	1	1000	1000	0	0
068	5	63	P	P	f	654.59	1	7	56	3	24	c	j	487.58	1	100	100	0	0
068	5	64	P	P	f	588.38	1	2	56	7	24	i	j	721.96	1	1000	1000	0	0
068	5	65	N	N	d	788.61	0	8	24	3	56	i	j	888.54	1	1000	1000	1	0
068	6	1	P	P	f	754.27	1	8	24	4	56	i	n	450.86	1	100	1000	-1	0
068	6	2	P	P	f	654.16	1	7	24	2	56	i	n	537.06	1	100	100	0	0
068	6	3	P	P	f	721.45	1	8	56	3	24	c	j	538.79	1	1000	100	0	0
068	6	4	N	N	d	550.98	0	2	24	7	56	c	n	787.96	1	100	100	1	0
068	6	5	P	P	f	570.94	1	9	24	3	56	i	n	837.8	1	100	100	1	0
068	6	6	N	N	d	454.78	0	7	24	4	56	i	j	1271.34	1	100	100	1	0
068	6	7	P	P	f	587.95	1	3	24	9	56	c	n	522.11	1	100	1000	1	0
068	6	8	P	P	f	1038.44	1	2	56	8	24	i	j	805.57	1	100	100	0	0
068	6	9	P	P	f	1371.95	1	8	24	3	56	i	n	1106.2	1	1000	100	0	0
068	6	10	N	N	d	638.17	0	2	24	7	56	c	n	470.68	1	1000	100	1	0
068	6	11	N	N	d	571.01	0	4	56	7	24	i	n	954.4	1	100	1000	0	0
068	6	12	N	N	d	421.13	0	9	56	3	24	c	j	554.26	1	100	100	0	0
068	6	13	N	N	d	517.19	0	4	24	8	56	c	n	638.12	1	100	1000	0	0
068	6	14	N	N	d	1272.13	0	9	56	2	24	c	j	638.58	1	1000	1000	0	0
068	6	15	P	P	f	705.54	1	4	24	8	56	c	n	437.66	1	100	100	1	0
068	6	16	N	N	f	404.47	0	2	56	7	24	i	n	1422.02	1	100	100	1	0
068	6	17	P	P	f	1656.04	1	9	56	4	24	c	j	1138.64	1	100	1000	1	0
068	6	18	N	N	d	587.12	0	9	56	3	24	c	j	721.56	1	100	100	1	0
068	6	19	P	P	f	755.24	1	9	56	2	24	c	j	621.82	1	1000	100	1	0
068	6	20	P	P	f	704.47	1	3	24	9	56	c	n	503.27	1	1000	100	0	0
068	6	21	N	N	d	604.94	0	2	24	7	56	c	n	688.07	1	100	1000	1	0
068	6	22	N	N	d	772.15	0	3	56	7	24	i	n	854.77	1	100	100	0	0
068	6	23	P	P	f	687.55	1	9	24	4	56	i	n	487.93	1	100	1000	1	0
068	6	24	P	P	f	638.47	1	7	56	2	24	c	j	1004.95	1	1000	1000	0	0
068	6	25	P	P	f	554.31	1	3	24	7	56	c	n	488.3	1	100	100	0	0
068	6	26	N	N	d	520.95	0	2	56	7	24	i	j	1339.45	0	100	1000	1	0
068	6	27	N	N	d	739.02	0	4	56	9	24	i	n	887.68	1	1000	100	0	1
068	6	28	N	N	d	653.93	0	3	24	8	56	c	n	620.9	1	100	100	0	0
068	6	29	P	P	f	567.63	1	2	24	9	56	c	n	718.26	1	1000	1000	1	0
068	6	30	N	N	d	670.98	0	9	24	4	56	i	j	504.1	1	100	1000	1	0
068	6	31	P	P	f	603.99	1	2	56	7	24	i	j	1022.71	1	100	1000	1	0
068	6	32	P	P	f	554.66	1	9	56	4	24	c	j	538.5	1	100	100	0	0
068	6	33	N	N	d	1121.43	0	7	24	3	56	i	j	1522.17	1	1000	100	1	0
068	6	34	P	P	f	687.49	1	9	56	4	24	c	j	1272.97	1	1000	1000	1	0
068	6	35	N	N	d	871.25	0	3	56	7	24	i	n	918.57	1	1000	100	1	0
068	6	36	P	P	f	555.02	1	8	56	4	24	c	j	771.27	1	100	100	1	0
068	6	37	P	P	f	954.29	1	3	24	9	56	c	n	1789.37	1	1000	1000	0	0
068	6	38	N	N	d	654.53	0	7	24	4	56	i	j	754.93	1	1000	1000	1	0
068	6	39	P	P	f	667.5	1	2	24	7	56	c	n	521.53	1	1000	100	1	0
068	6	40	P	P	f	987.23	1	8	24	3	56	i	n	755.0	1	1000	1000	0	0
068	6	41	P	P	f	571.48	1	2	56	7	24	i	j	454.4	1	100	1000	0	0
068	6	42	N	N	d	621.32	0	3	24	8	56	c	n	671.75	1	1000	1000	1	0
068	6	43	N	N	d	470.57	0	7	56	2	24	c	j	471.01	1	1000	100	0	0
068	6	44	N	N	d	501.28	0	7	56	3	24	c	j	687.78	1	100	1000	0	0
068	6	45	N	N	d	455.2	0	7	24	2	56	i	j	603.73	1	1000	1000	0	0
068	6	46	N	N	d	705.36	0	7	24	4	56	i	j	1038.38	1	100	1000	0	0
068	6	47	N	N	d	588.34	0	2	24	8	56	c	n	937.82	1	1000	100	0	0
068	6	48	N	N	d	537.35	0	4	56	8	24	i	n	904.75	1	1000	1000	0	0
068	6	49	N	N	d	1072.44	0	2	24	7	56	c	n	804.48	1	1000	1000	0	0
068	6	50	N	N	d	571.77	0	7	24	3	56	i	j	788.85	1	1000	100	0	0
068	6	51	P	P	f	704.19	1	2	56	9	24	i	j	554.14	1	1000	100	1	0
068	6	52	P	P	f	454.14	1	8	56	3	24	c	j	537.83	1	100	1000	0	0
068	6	53	N	N	d	470.76	0	4	56	9	24	i	n	1038.59	1	1000	1000	1	0
068	6	54	N	N	d	604.96	0	9	24	2	56	i	j	470.38	1	100	100	0	0
068	6	55	P	P	f	1039.01	1	8	24	3	56	i	n	488.26	1	1000	100	1	0
068	6	56	N	N	d	704.65	0	7	56	2	24	c	j	851.28	1	100	1000	1	0
068	6	57	P	P	f	1455.53	1	4	56	8	24	i	j	855.22	1	100	100	1	0
068	6	58	P	P	f	404.26	1	7	24	2	56	i	n	604.37	1	100	1000	0	0
068	6	59	P	P	f	651.51	1	3	24	9	56	c	n	621.27	1	100	1000	0	0
068	6	60	N	N	d	620.46	0	7	56	4	24	c	j	687.71	1	1000	100	1	0
068	6	61	P	P	f	637.74	1	3	56	9	24	i	j	671.33	1	1000	1000	1	0
068	6	62	P	P	f	921.49	1	2	56	9	24	i	j	837.27	1	1000	100	0	0
068	6	63	N	N	d	488.71	0	8	56	3	24	c	j	771.55	1	1000	1000	1	0
068	6	64	P	P	f	988.54	1	7	24	2	56	i	n	688.03	1	1000	1000	1	0
068	6	65	P	P	f	788.03	1	3	56	7	24	i	j	604.66	1	1000	1000	0	0
