subj	block	trial	task_cue	task	choice_resp	choiceRT	choice_acc	topnum	topsize	botnum	botsize	cong	task_resp	taskRT	task_acc	RSI	CSI	altRep	E1
071	1	1	?	P	f	1937.0	NA	7	56	4	24	c	j	1720.62	1	100	100	-1	0
071	1	2	?	N	d	1419.54	NA	3	56	8	24	i	n	1970.55	1	100	100	0	0
071	1	3	?	N	d	452.46	NA	9	24	2	56	i	j	1653.75	1	1000	100	0	0
071	1	4	?	P	f	935.82	NA	8	24	3	56	i	n	1520.5	1	1000	1000	0	0
071	1	5	?	N	d	1254.16	NA	9	56	4	24	c	j	6258.85	1	100	1000	0	0
071	1	6	?	P	f	1870.81	NA	3	56	7	24	i	j	1169.7	1	1000	100	0	0
071	1	7	?	P	f	2454.2	NA	2	56	7	24	i	j	1286.59	1	100	1000	0	0
071	1	8	?	N	d	1370.38	NA	9	56	4	24	c	j	2719.81	1	1000	1000	0	0
071	1	9	?	N	d	1253.19	NA	2	24	8	56	c	n	5140.87	1	100	1000	0	0
071	1	10	?	P	f	2655.02	NA	4	24	9	56	c	n	4273.12	1	100	100	0	0
071	1	11	?	P	f	2704.73	NA	8	56	3	24	c	j	1987.67	1	100	1000	0	0
071	1	12	?	P	f	185.41	NA	4	24	9	56	c	n	1603.15	1	1000	1000	0	0
071	1	13	?	N	d	1687.05	NA	3	24	7	56	c	n	2988.49	1	1000	1000	0	0
071	1	14	?	P	f	4106.38	NA	4	24	9	56	c	n	1537.25	1	100	100	0	0
071	1	15	?	N	d	2471.0	NA	7	24	3	56	i	j	3722.81	1	1000	1000	0	0
071	1	16	?	N	d	1485.52	NA	4	56	8	24	i	n	3188.89	1	100	100	0	0
071	1	17	?	P	f	1687.11	NA	9	24	2	56	i	n	1470.28	1	1000	1000	0	0
071	1	18	?	P	f	652.88	NA	8	56	4	24	c	j	1671.07	1	1000	100	0	0
071	1	19	?	N	d	452.34	NA	7	24	2	56	i	j	6525.45	1	1000	1000	0	0
071	1	20	?	P	f	902.69	NA	4	56	7	24	i	j	2905.19	1	1000	1000	0	0
071	1	21	?	P	f	568.85	NA	2	56	8	24	i	j	2169.4	1	1000	1000	0	0
071	1	22	?	N	d	568.95	NA	7	56	4	24	c	j	1236.09	1	1000	1000	0	0
071	1	23	?	N	d	452.49	NA	2	56	9	24	i	n	1236.33	1	100	100	0	0
071	1	24	?	P	f	285.43	NA	9	56	4	24	c	j	3555.92	1	1000	100	0	0
071	1	25	?	P	f	485.13	NA	8	24	2	56	i	n	2436.5	1	100	1000	0	0
071	1	26	?	N	d	435.61	NA	3	56	9	24	i	n	3138.57	1	100	1000	0	0
071	1	27	?	P	f	135.33	NA	4	56	9	24	i	j	1520.14	1	1000	100	0	0
071	1	28	?	N	d	535.73	NA	2	24	9	56	c	n	1687.42	1	100	1000	0	0
071	1	29	?	P	f	1186.98	NA	7	56	4	24	c	j	2086.79	1	100	100	0	0
071	1	30	?	N	d	719.57	NA	3	24	8	56	c	n	1403.2	1	1000	100	0	0
071	1	31	?	P	f	469.19	NA	4	24	8	56	c	n	2071.06	1	1000	100	0	0
071	1	32	?	N	d	569.28	NA	2	56	9	24	i	n	2154.83	1	1000	1000	0	0
071	1	33	?	P	f	1369.81	NA	3	24	7	56	c	n	1235.85	1	100	1000	0	0
071	1	34	?	N	d	585.16	NA	7	56	2	24	c	j	5558.29	1	100	1000	0	0
071	1	35	?	P	f	1386.45	NA	4	56	8	24	i	j	2187.86	1	100	1000	0	0
071	1	36	?	N	d	1036.18	NA	7	24	2	56	i	j	2404.29	1	100	1000	0	0
071	1	37	?	P	f	851.45	NA	4	24	8	56	c	n	6525.16	1	1000	100	0	0
071	1	38	?	P	f	252.56	NA	7	24	3	56	i	n	1353.8	1	1000	100	0	0
071	1	39	?	P	f	419.41	NA	7	56	4	24	c	j	669.07	1	1000	100	0	0
071	1	40	?	N	d	752.09	NA	2	24	8	56	c	n	1219.68	1	100	100	0	0
071	1	41	?	N	d	384.53	NA	4	56	7	24	i	n	1519.97	1	100	100	0	0
071	1	42	?	N	d	235.32	NA	2	56	7	24	i	n	852.88	1	1000	100	0	0
071	1	43	?	N	d	485.78	NA	9	24	3	56	i	j	1336.04	1	100	100	0	0
071	1	44	?	P	f	1286.47	NA	9	24	2	56	i	n	1337.08	1	1000	100	0	0
071	1	45	?	P	f	435.64	NA	4	24	9	56	c	n	986.03	1	100	1000	0	0
071	1	46	?	P	f	703.23	NA	2	24	7	56	c	n	835.96	1	100	100	0	0
071	1	47	?	P	f	352.1	NA	7	24	3	56	i	n	1002.79	1	100	1000	0	0
071	1	48	?	P	f	436.28	NA	4	56	8	24	i	j	1235.58	1	100	100	0	0
071	1	49	?	N	d	735.97	NA	2	56	8	24	i	n	1652.52	1	1000	1000	0	0
071	1	50	?	N	d	452.48	NA	8	24	4	56	i	j	2104.34	1	100	1000	0	0
071	1	51	?	N	d	68.6	NA	9	56	3	24	c	j	3422.28	1	1000	1000	0	0
071	1	52	?	N	d	435.68	NA	7	24	2	56	i	j	3422.07	1	100	100	0	0
071	1	53	?	N	d	435.56	NA	3	56	9	24	i	n	2854.66	1	100	1000	0	0
071	1	54	?	P	f	486.08	NA	4	24	7	56	c	n	3172.13	1	1000	1000	0	0
071	1	55	?	P	f	451.9	NA	7	56	3	24	c	j	1119.76	1	100	100	0	0
071	1	56	?	P	f	452.1	NA	8	56	2	24	c	j	1153.04	1	100	1000	0	0
071	1	57	?	P	f	502.37	NA	8	56	3	24	c	j	752.02	1	1000	100	0	0
071	1	58	?	P	f	485.7	NA	9	56	2	24	c	j	752.64	1	100	100	0	0
071	1	59	?	P	f	485.84	NA	3	24	8	56	c	n	769.89	1	1000	100	0	0
071	1	60	?	P	f	953.03	NA	9	56	4	24	c	j	769.65	1	100	100	0	0
071	1	61	?	P	f	952.63	NA	3	56	8	24	i	j	652.19	1	1000	100	0	0
071	1	62	?	P	f	1169.76	NA	4	56	9	24	i	j	602.25	1	100	100	0	0
071	1	63	?	N	d	969.42	NA	2	56	9	24	i	n	1336.66	1	1000	100	0	0
071	1	64	?	P	f	469.05	NA	9	56	4	24	c	j	802.48	1	1000	1000	0	0
071	1	65	?	N	d	2454.53	NA	3	24	9	56	c	n	2671.61	1	1000	1000	0	0
071	2	1	?	N	d	13033.16	NA	7	56	2	24	c	j	1535.94	1	1000	100	-1	0
071	2	2	?	N	d	18.53	NA	4	56	9	24	i	n	1286.86	1	1000	100	0	0
071	2	3	?	N	d	435.71	NA	9	56	2	24	c	j	2670.54	1	100	100	0	0
071	2	4	?	P	f	886.11	NA	4	56	8	24	i	j	1653.26	1	100	1000	0	0
071	2	5	?	P	f	485.57	NA	8	24	3	56	i	n	835.57	1	100	100	0	0
071	2	6	?	P	f	1103.02	NA	4	24	9	56	c	n	1519.68	1	1000	1000	0	0
071	2	7	?	N	d	785.88	NA	8	24	2	56	i	j	1435.19	1	100	1000	0	0
071	2	8	?	N	d	400.68	NA	3	24	8	56	c	n	918.8	1	100	100	0	0
071	2	9	?	N	d	635.91	NA	4	24	9	56	c	n	1119.51	1	1000	100	0	0
071	2	10	?	P	f	484.26	NA	7	56	3	24	c	j	1820.74	1	1000	1000	0	0
071	2	11	?	P	f	252.01	NA	8	24	4	56	i	n	652.34	1	100	100	0	0
071	2	12	?	P	f	468.24	NA	3	24	8	56	c	n	986.83	1	1000	1000	0	0
071	2	13	?	N	d	418.9	NA	7	24	4	56	i	j	1353.34	1	100	100	0	0
071	2	14	?	N	d	685.78	NA	7	56	2	24	c	j	1770.1	1	1000	100	0	0
071	2	15	?	N	d	502.5	NA	8	24	4	56	i	j	3956.08	1	1000	100	0	0
071	2	16	?	N	d	502.36	NA	7	24	2	56	i	j	1020.03	1	100	100	0	0
071	2	17	?	N	d	569.12	NA	4	56	7	24	i	n	986.44	1	1000	1000	0	0
071	2	18	?	N	d	485.64	NA	2	56	9	24	i	n	1853.74	1	1000	100	0	0
071	2	19	?	P	f	685.95	NA	3	24	8	56	c	n	1987.26	1	100	100	0	0
071	2	20	?	P	f	501.75	NA	4	56	8	24	i	j	802.07	1	1000	100	0	0
071	2	21	?	P	f	701.23	NA	9	24	2	56	i	n	1002.79	1	1000	1000	0	0
071	2	22	?	P	f	101.79	NA	7	24	4	56	i	n	768.52	1	100	100	0	0
071	2	23	?	P	f	652.66	NA	3	24	9	56	c	n	919.55	1	1000	1000	0	0
071	2	24	?	P	f	1101.67	NA	2	56	9	24	i	j	1469.99	1	1000	1000	0	0
071	2	25	?	N	d	51.48	NA	8	56	4	24	c	j	1620.35	1	1000	100	0	0
071	2	26	?	N	d	385.5	NA	7	56	2	24	c	j	536.19	1	100	1000	0	0
071	2	27	?	N	d	2020.58	NA	8	56	3	24	c	j	618.35	1	1000	1000	0	0
071	2	28	?	N	d	636.1	NA	2	56	8	24	i	j	2905.29	0	1000	1000	0	0
071	2	29	?	N	d	602.94	NA	7	24	3	56	i	j	1987.33	1	100	1000	0	1
071	2	30	?	P	f	202.35	NA	2	56	7	24	i	j	1436.52	1	1000	100	0	0
071	2	31	?	P	f	402.29	NA	8	56	4	24	c	j	501.62	1	100	100	0	0
071	2	32	?	P	f	467.91	NA	9	56	2	24	c	j	953.26	1	100	1000	0	0
071	2	33	?	P	f	585.12	NA	3	56	7	24	i	j	552.67	1	1000	1000	0	0
071	2	34	?	N	d	735.59	NA	9	56	4	24	c	j	1937.28	1	100	100	0	0
071	2	35	?	N	d	335.48	NA	7	24	2	56	i	j	2553.28	1	100	100	0	0
071	2	36	?	N	d	502.63	NA	3	56	8	24	i	n	3739.38	1	1000	100	0	0
071	2	37	?	P	f	1169.26	NA	2	24	8	56	c	n	986.42	1	100	1000	0	0
071	2	38	?	P	f	435.51	NA	7	24	4	56	i	n	1186.15	1	100	1000	0	0
071	2	39	?	P	f	736.1	NA	9	56	3	24	c	j	1870.48	1	1000	100	0	0
071	2	40	?	P	f	436.15	NA	8	24	2	56	i	n	934.72	1	100	1000	0	0
071	2	41	?	N	d	635.7	NA	3	24	8	56	c	n	1853.99	1	100	1000	0	0
071	2	42	?	N	d	585.66	NA	4	24	9	56	c	n	919.35	1	1000	100	0	0
071	2	43	?	N	d	217.86	NA	9	56	2	24	c	j	1136.47	1	100	100	0	0
071	2	44	?	P	f	884.69	NA	7	24	3	56	i	n	2404.56	1	100	100	0	0
071	2	45	?	P	f	635.89	NA	8	24	2	56	i	n	2638.09	1	1000	100	0	0
071	2	46	?	P	f	2988.5	NA	3	24	9	56	c	n	1869.89	1	1000	100	0	0
071	2	47	?	P	f	502.51	NA	8	24	4	56	i	n	2704.78	1	1000	1000	0	0
071	2	48	?	N	d	602.22	NA	2	56	9	24	i	n	1003.04	1	100	1000	0	0
071	2	49	?	N	d	234.64	NA	3	24	7	56	c	n	2086.34	1	100	1000	0	0
071	2	50	?	N	d	585.03	NA	8	24	4	56	i	j	2152.58	1	1000	1000	0	0
071	2	51	?	P	f	367.6	NA	2	24	9	56	c	n	1119.58	1	100	100	0	0
071	2	52	?	P	f	85.29	NA	3	24	8	56	c	n	585.2	1	1000	100	0	0
071	2	53	?	P	f	368.83	NA	2	56	8	24	i	j	2204.05	1	100	100	0	0
071	2	54	?	P	f	1.71	NA	7	56	4	24	c	j	1586.59	1	1000	100	0	0
071	2	55	?	P	f	234.56	NA	9	56	2	24	c	j	652.5	1	100	1000	0	0
071	2	56	?	N	d	869.65	NA	8	24	3	56	i	j	952.91	1	1000	1000	0	0
071	2	57	?	N	d	469.13	NA	9	24	2	56	i	j	952.38	1	1000	100	0	0
071	2	58	?	P	f	686.01	NA	8	24	4	56	i	n	835.84	1	100	1000	0	0
071	2	59	?	N	d	101.55	NA	8	56	2	24	c	j	1019.54	1	1000	1000	0	0
071	2	60	?	P	f	535.76	NA	4	56	9	24	i	j	1536.67	1	100	1000	0	0
071	2	61	?	N	d	584.43	NA	2	24	8	56	c	n	769.21	1	1000	1000	0	0
071	2	62	?	P	f	736.08	NA	4	24	9	56	c	n	2670.04	1	100	100	0	0
071	2	63	?	N	d	769.3	NA	7	56	3	24	c	j	1086.28	1	1000	1000	0	0
071	2	64	?	N	d	669.93	NA	4	24	9	56	c	n	1002.74	1	100	1000	0	0
071	2	65	?	P	f	651.31	NA	9	56	2	24	c	j	467.81	1	100	1000	0	0
071	3	1	?	P	f	8510.87	NA	9	24	2	56	i	n	1718.84	1	1000	1000	-1	0
071	3	2	?	N	d	1119.82	NA	7	24	3	56	i	j	1987.52	1	100	1000	0	0
071	3	3	?	P	f	819.26	NA	7	56	2	24	c	j	1269.82	1	100	100	0	0
071	3	4	?	N	d	1.73	NA	9	56	4	24	c	j	1152.96	1	1000	1000	0	0
071	3	5	?	P	f	1236.59	NA	9	56	3	24	c	j	769.63	1	100	1000	0	0
071	3	6	?	N	d	586.16	NA	7	24	4	56	i	j	1953.9	1	100	100	0	0
071	3	7	?	P	f	5558.09	NA	7	56	3	24	c	j	618.71	1	1000	100	0	0
071	3	8	?	N	d	569.01	NA	2	56	7	24	i	n	3788.58	1	1000	100	0	0
071	3	9	?	P	f	669.72	NA	4	24	8	56	c	n	1019.74	1	100	1000	0	0
071	3	10	?	P	f	936.19	NA	7	56	2	24	c	j	401.5	1	100	1000	0	0
071	3	11	?	P	f	519.21	NA	7	56	4	24	c	j	518.58	1	1000	100	0	0
071	3	12	?	P	f	268.71	NA	7	56	2	24	c	j	502.59	1	100	100	0	0
071	3	13	?	P	f	519.28	NA	3	56	7	24	i	j	602.05	1	1000	1000	0	0
071	3	14	?	N	d	468.96	NA	2	56	7	24	i	n	1052.7	1	100	1000	0	0
071	3	15	?	N	d	419.84	NA	8	56	4	24	c	j	737.21	1	100	100	0	0
071	3	16	?	N	d	335.02	NA	9	24	3	56	i	j	886.24	1	100	100	0	0
071	3	17	?	N	d	435.6	NA	4	56	8	24	i	n	852.76	1	1000	1000	0	0
071	3	18	?	N	d	535.6	NA	3	24	9	56	c	n	1086.65	1	100	1000	0	0
071	3	19	?	P	f	3171.87	NA	9	24	4	56	i	n	1070.05	1	1000	100	0	0
071	3	20	?	P	f	302.47	NA	7	24	2	56	i	n	535.19	1	100	1000	0	0
071	3	21	?	P	f	219.29	NA	4	56	8	24	i	j	502.46	1	100	1000	0	0
071	3	22	?	P	f	301.9	NA	3	24	8	56	c	n	652.71	1	100	100	0	0
071	3	23	?	P	f	285.62	NA	4	24	8	56	c	n	535.52	1	100	1000	0	0
071	3	24	?	P	f	1770.12	NA	9	56	2	24	c	j	635.45	1	1000	1000	0	0
071	3	25	?	N	d	651.67	NA	3	56	9	24	i	n	936.5	1	100	100	0	0
071	3	26	?	N	d	385.31	NA	2	24	8	56	c	n	785.03	1	100	100	0	0
071	3	27	?	N	d	635.89	NA	7	56	4	24	c	j	785.97	1	1000	1000	0	0
071	3	28	?	N	d	135.53	NA	2	56	7	24	i	n	802.71	1	1000	100	0	0
071	3	29	?	P	f	969.37	NA	9	56	3	24	c	j	519.64	1	1000	1000	0	0
071	3	30	?	N	d	684.91	NA	2	24	9	56	c	n	769.3	1	100	100	0	0
071	3	31	?	P	f	352.4	NA	8	24	3	56	i	j	986.69	0	100	100	0	0
071	3	32	?	N	d	385.49	NA	8	24	4	56	i	j	4187.65	1	100	100	0	1
071	3	33	?	P	f	535.48	NA	9	24	2	56	i	n	569.23	1	1000	1000	0	0
071	3	34	?	N	d	651.01	NA	7	24	4	56	i	j	1052.59	1	100	1000	0	0
071	3	35	?	P	f	635.74	NA	9	24	3	56	i	n	1586.56	1	100	100	0	0
071	3	36	?	N	d	435.74	NA	4	56	9	24	i	n	1152.98	1	100	1000	0	0
071	3	37	?	P	f	1551.76	NA	2	56	7	24	i	j	1252.93	1	1000	100	0	0
071	3	38	?	N	d	585.74	NA	7	24	4	56	i	j	2537.79	1	100	100	0	0
071	3	39	?	P	f	1303.41	NA	3	56	8	24	i	j	485.92	1	1000	1000	0	0
071	3	40	?	N	d	552.5	NA	4	56	8	24	i	n	1169.88	1	100	1000	0	0
071	3	41	?	P	f	619.1	NA	7	24	3	56	i	j	1136.4	0	1000	1000	0	0
071	3	42	?	N	d	3138.25	NA	7	24	4	56	i	j	2187.93	1	1000	1000	0	1
071	3	43	?	P	f	2137.61	NA	2	24	9	56	c	n	2087.88	1	100	1000	0	0
071	3	44	?	N	d	168.99	NA	4	24	7	56	c	n	1253.29	1	1000	1000	0	0
071	3	45	?	P	f	18.58	NA	2	24	7	56	c	n	1770.41	1	1000	1000	0	0
071	3	46	?	N	d	1753.62	NA	3	24	8	56	c	n	1753.81	1	1000	100	0	0
071	3	47	?	P	f	202.11	NA	2	24	7	56	c	n	1369.42	1	1000	100	0	0
071	3	48	?	N	d	935.71	NA	8	56	3	24	c	j	1385.99	1	100	1000	0	0
071	3	49	?	P	f	601.91	NA	2	56	8	24	i	j	1436.38	1	1000	100	0	0
071	3	50	?	N	d	2471.39	NA	3	24	8	56	c	n	869.73	1	1000	100	0	0
071	3	51	?	P	f	768.31	NA	7	24	2	56	i	n	4239.9	1	100	100	0	0
071	3	52	?	N	d	17.68	NA	9	56	3	24	c	j	2270.84	1	1000	100	0	0
071	3	53	?	P	f	2020.81	NA	8	56	4	24	c	j	1269.9	1	100	1000	0	0
071	3	54	?	P	f	636.36	NA	2	56	8	24	i	j	602.28	1	1000	1000	0	0
071	3	55	?	P	f	118.73	NA	3	24	7	56	c	n	868.61	1	1000	100	0	0
071	3	56	?	P	f	568.2	NA	4	24	7	56	c	n	952.3	1	1000	1000	0	0
071	3	57	?	P	f	435.76	NA	7	24	3	56	i	n	1536.64	1	1000	100	0	0
071	3	58	?	N	d	969.43	NA	8	56	2	24	c	j	1302.63	1	1000	100	0	0
071	3	59	?	N	d	469.31	NA	4	56	7	24	i	j	1103.15	0	1000	1000	0	0
071	3	60	?	N	d	685.96	NA	2	24	7	56	c	n	1119.78	1	100	100	0	1
071	3	61	?	N	d	351.68	NA	9	56	3	24	c	j	702.95	1	100	100	0	0
071	3	62	?	N	d	802.25	NA	8	24	4	56	i	j	1052.96	1	1000	100	0	0
071	3	63	?	N	d	152.09	NA	9	24	2	56	i	j	635.62	1	1000	100	0	0
071	3	64	?	P	f	1570.22	NA	4	24	8	56	c	n	920.09	1	1000	1000	0	0
071	3	65	?	P	f	302.15	NA	3	56	8	24	i	j	652.44	1	100	1000	0	0
071	4	1	?	N	d	1937.08	NA	2	56	9	24	i	n	1452.36	1	1000	100	-1	0
071	4	2	?	N	d	785.97	NA	8	56	3	24	c	j	1052.87	1	1000	1000	0	0
071	4	3	?	N	d	85.04	NA	8	56	4	24	c	j	2053.78	1	1000	1000	0	0
071	4	4	?	P	f	268.35	NA	8	24	3	56	i	n	602.39	1	100	1000	0	0
071	4	5	?	P	f	1936.5	NA	9	24	2	56	i	n	769.21	1	1000	100	0	0
071	4	6	?	P	f	318.52	NA	3	24	8	56	c	n	1251.78	1	100	1000	0	0
071	4	7	?	P	f	467.61	NA	8	24	4	56	i	n	786.17	1	1000	1000	0	0
071	4	8	?	N	d	302.17	NA	9	56	3	24	c	j	835.59	1	100	100	0	0
071	4	9	?	N	d	669.31	NA	4	24	7	56	c	n	2505.21	1	1000	100	0	0
071	4	10	?	N	d	536.14	NA	2	24	7	56	c	n	702.2	1	1000	100	0	0
071	4	11	?	N	d	452.64	NA	4	24	9	56	c	n	1186.81	1	100	1000	0	0
071	4	12	?	P	f	318.53	NA	8	24	2	56	i	n	1487.21	1	100	1000	0	0
071	4	13	?	P	f	469.08	NA	4	24	9	56	c	n	1252.95	1	1000	100	0	0
071	4	14	?	P	f	702.46	NA	7	56	3	24	c	j	2086.97	1	1000	1000	0	0
071	4	15	?	P	f	168.46	NA	8	24	4	56	i	n	1236.77	1	1000	1000	0	0
071	4	16	?	P	f	218.69	NA	9	24	3	56	i	n	819.37	1	100	100	0	0
071	4	17	?	P	f	218.42	NA	9	24	2	56	i	n	551.04	1	100	100	0	0
071	4	18	?	N	d	1569.71	NA	4	56	7	24	i	n	2204.15	1	1000	100	0	0
071	4	19	?	N	d	501.98	NA	7	56	3	24	c	j	850.8	1	1000	100	0	0
071	4	20	?	N	d	518.43	NA	8	24	4	56	i	j	902.99	1	1000	100	0	0
071	4	21	?	N	d	385.53	NA	7	56	3	24	c	j	786.1	1	100	1000	0	0
071	4	22	?	N	d	469.21	NA	9	56	2	24	c	j	1102.41	1	1000	100	0	0
071	4	23	?	P	f	536.2	NA	7	24	3	56	i	n	786.04	1	1000	1000	0	0
071	4	24	?	N	d	235.04	NA	4	24	9	56	c	n	1536.8	1	100	100	0	0
071	4	25	?	P	f	218.66	NA	3	56	8	24	i	j	802.95	1	1000	1000	0	0
071	4	26	?	N	d	84.75	NA	8	24	4	56	i	j	1436.63	1	1000	100	0	0
071	4	27	?	P	f	569.22	NA	2	56	9	24	i	j	1503.63	1	100	100	0	0
071	4	28	?	N	d	502.33	NA	9	56	4	24	c	j	1369.93	1	1000	100	0	0
071	4	29	?	P	f	451.82	NA	2	56	7	24	i	j	552.35	1	1000	1000	0	0
071	4	30	?	N	d	419.07	NA	9	24	3	56	i	j	1703.66	1	100	100	0	0
071	4	31	?	P	f	603.05	NA	4	24	7	56	c	n	1101.77	1	1000	100	0	0
071	4	32	?	N	d	151.96	NA	3	24	9	56	c	n	1503.42	1	1000	1000	0	0
071	4	33	?	P	f	1103.12	NA	2	24	9	56	c	n	702.4	1	1000	1000	0	0
071	4	34	?	N	d	1252.59	NA	9	56	4	24	c	j	2187.75	1	100	1000	0	0
071	4	35	?	P	f	2504.53	NA	2	24	8	56	c	n	2321.02	1	1000	1000	0	0
071	4	36	?	P	f	1352.78	NA	7	24	4	56	i	n	685.59	1	100	1000	0	0
071	4	37	?	N	d	419.09	NA	8	24	3	56	i	j	1620.0	1	100	1000	0	0
071	4	38	?	N	d	401.93	NA	7	24	2	56	i	j	752.76	1	1000	100	0	0
071	4	39	?	P	f	484.87	NA	9	56	4	24	c	j	1069.06	1	100	100	0	0
071	4	40	?	P	f	418.95	NA	3	56	7	24	i	j	652.2	1	1000	1000	0	0
071	4	41	?	P	f	736.17	NA	7	56	4	24	c	j	635.81	1	1000	100	0	0
071	4	42	?	N	d	535.76	NA	9	24	2	56	i	j	1069.69	1	1000	100	0	0
071	4	43	?	N	d	552.04	NA	4	56	7	24	i	n	1369.84	1	100	1000	0	0
071	4	44	?	P	f	85.51	NA	3	24	8	56	c	n	769.57	1	1000	1000	0	0
071	4	45	?	N	d	618.9	NA	9	24	2	56	i	j	1253.41	1	1000	1000	0	0
071	4	46	?	P	f	2337.87	NA	4	56	8	24	i	j	935.54	1	100	1000	0	0
071	4	47	?	P	f	434.93	NA	9	24	2	56	i	n	952.79	1	1000	100	0	0
071	4	48	?	N	d	217.73	NA	4	56	9	24	i	n	1335.92	1	1000	1000	0	0
071	4	49	?	N	d	736.26	NA	9	24	3	56	i	j	819.19	1	100	100	0	0
071	4	50	?	P	f	968.24	NA	4	24	8	56	c	n	735.95	1	100	1000	0	0
071	4	51	?	P	f	301.03	NA	2	24	9	56	c	n	651.88	1	100	1000	0	0
071	4	52	?	N	d	920.28	NA	8	56	3	24	c	j	2187.31	1	100	1000	0	0
071	4	53	?	N	d	2136.84	NA	8	56	4	24	c	j	3188.9	1	1000	1000	0	0
071	4	54	?	N	d	552.66	NA	7	24	3	56	i	j	1253.08	1	100	100	0	0
071	4	55	?	P	f	802.88	NA	4	56	7	24	i	j	586.26	1	100	1000	0	0
071	4	56	?	P	f	585.0	NA	9	24	3	56	i	n	752.02	1	100	100	0	0
071	4	57	?	P	f	535.77	NA	9	56	4	24	c	j	1887.23	1	100	100	0	0
071	4	58	?	N	d	1053.18	NA	3	56	8	24	i	n	3055.01	1	100	100	0	0
071	4	59	?	N	d	952.95	NA	2	24	8	56	c	j	752.54	0	100	100	0	0
071	4	60	?	N	d	450.84	NA	4	24	9	56	c	j	1219.79	0	100	100	0	1
071	4	61	?	N	d	5507.98	NA	7	56	2	24	c	j	2604.49	1	100	100	0	1
071	4	62	?	N	d	217.83	NA	7	56	4	24	c	j	1186.06	1	100	1000	0	0
071	4	63	?	N	d	201.25	NA	9	24	3	56	i	j	1737.11	1	100	1000	0	0
071	4	64	?	N	d	451.28	NA	2	56	7	24	i	n	1903.18	1	1000	100	0	0
071	4	65	?	P	f	902.22	NA	3	24	7	56	c	n	1203.45	1	100	100	0	0
071	5	1	?	P	f	4974.79	NA	8	56	2	24	c	j	1403.2	1	100	1000	-1	0
071	5	2	?	P	f	502.37	NA	7	24	3	56	i	n	1086.55	1	1000	1000	0	0
071	5	3	?	P	f	518.99	NA	2	24	7	56	c	n	719.39	1	1000	1000	0	0
071	5	4	?	P	f	152.15	NA	8	24	3	56	i	n	518.84	1	1000	1000	0	0
071	5	5	?	N	d	385.85	NA	4	24	9	56	c	n	1153.4	1	100	100	0	0
071	5	6	?	N	d	134.95	NA	2	56	8	24	i	n	1153.02	1	1000	1000	0	0
071	5	7	?	N	d	602.58	NA	8	56	3	24	c	j	1069.4	1	1000	100	0	0
071	5	8	?	N	d	318.59	NA	4	56	8	24	i	n	786.65	1	100	1000	0	0
071	5	9	?	P	f	369.41	NA	3	56	9	24	i	j	719.04	1	100	100	0	0
071	5	10	?	P	f	302.5	NA	7	24	4	56	i	n	552.05	1	100	100	0	0
071	5	11	?	P	f	902.59	NA	2	24	9	56	c	n	819.11	1	1000	100	0	0
071	5	12	?	P	f	535.4	NA	4	56	9	24	i	j	1203.4	1	1000	1000	0	0
071	5	13	?	N	d	619.38	NA	8	56	2	24	c	j	768.89	1	1000	1000	0	0
071	5	14	?	N	d	367.52	NA	9	56	4	24	c	j	769.47	1	100	100	0	0
071	5	15	?	N	d	502.64	NA	3	56	9	24	i	n	1186.52	1	1000	100	0	0
071	5	16	?	N	d	202.44	NA	2	24	9	56	c	n	1002.97	1	100	1000	0	0
071	5	17	?	N	d	385.49	NA	9	56	4	24	c	j	969.53	1	100	100	0	0
071	5	18	?	N	d	1169.74	NA	7	56	3	24	c	j	918.4	1	100	1000	0	0
071	5	19	?	P	f	418.95	NA	9	56	2	24	c	j	919.58	1	1000	1000	0	0
071	5	20	?	P	f	635.87	NA	9	24	3	56	i	n	1086.02	1	100	1000	0	0
071	5	21	?	P	f	435.6	NA	2	24	8	56	c	n	1353.44	1	100	1000	0	0
071	5	22	?	P	f	118.57	NA	8	56	3	24	c	j	568.94	1	1000	1000	0	0
071	5	23	?	N	d	936.42	NA	9	56	4	24	c	j	902.98	1	100	100	0	0
071	5	24	?	N	d	268.89	NA	8	56	2	24	c	j	685.55	1	100	1000	0	0
071	5	25	?	N	d	502.3	NA	4	24	7	56	c	n	802.85	1	1000	100	0	0
071	5	26	?	N	d	485.67	NA	8	24	3	56	i	j	1019.69	1	1000	100	0	0
071	5	27	?	N	d	2070.42	NA	8	56	2	24	c	j	1603.55	1	1000	100	0	0
071	5	28	?	N	d	235.38	NA	3	56	9	24	i	n	1069.56	1	100	1000	0	0
071	5	29	?	P	f	535.44	NA	4	56	8	24	i	j	619.22	1	100	1000	0	0
071	5	30	?	P	f	1.76	NA	3	56	7	24	i	j	1051.98	1	1000	1000	0	0
071	5	31	?	P	f	85.31	NA	4	24	8	56	c	n	1136.24	1	1000	100	0	0
071	5	32	?	N	d	1236.95	NA	7	24	3	56	i	j	1403.26	1	1000	100	0	0
071	5	33	?	N	d	318.89	NA	4	56	8	24	i	n	719.63	1	100	1000	0	0
071	5	34	?	P	f	619.62	NA	9	56	2	24	c	j	669.23	1	100	100	0	0
071	5	35	?	N	d	369.03	NA	4	24	9	56	c	n	885.74	1	100	1000	0	0
071	5	36	?	N	d	552.3	NA	9	24	2	56	i	j	1102.72	1	1000	100	0	0
071	5	37	?	P	f	318.6	NA	8	56	4	24	c	j	1253.3	1	100	1000	0	0
071	5	38	?	N	d	2220.98	NA	2	56	9	24	i	n	835.91	1	1000	100	0	0
071	5	39	?	N	d	435.65	NA	3	24	7	56	c	n	1953.32	1	100	1000	0	0
071	5	40	?	P	f	1703.77	NA	2	24	8	56	c	n	819.12	1	1000	1000	0	0
071	5	41	?	P	f	468.91	NA	9	56	4	24	c	j	819.31	1	1000	1000	0	0
071	5	42	?	P	f	503.11	NA	2	56	7	24	i	j	736.1	1	100	1000	0	0
071	5	43	?	N	d	301.96	NA	4	56	9	24	i	n	1169.94	1	100	100	0	0
071	5	44	?	N	d	652.51	NA	9	24	3	56	i	j	1436.86	1	1000	1000	0	0
071	5	45	?	P	f	735.96	NA	4	56	9	24	i	j	1002.74	1	100	100	0	0
071	5	46	?	P	f	317.85	NA	2	56	7	24	i	j	819.59	1	100	100	0	0
071	5	47	?	P	f	1486.59	NA	7	56	4	24	c	j	1020.54	1	1000	100	0	0
071	5	48	?	P	f	351.85	NA	9	24	2	56	i	n	702.61	1	1000	100	0	0
071	5	49	?	N	d	3305.5	NA	9	24	4	56	i	j	1820.6	1	100	1000	0	0
071	5	50	?	P	f	302.4	NA	3	56	7	24	i	j	585.82	1	100	1000	0	0
071	5	51	?	N	d	1086.6	NA	8	56	4	24	c	j	1520.88	1	1000	100	0	0
071	5	52	?	N	d	452.3	NA	3	24	8	56	c	n	1837.06	1	1000	100	0	0
071	5	53	?	N	d	368.87	NA	4	24	7	56	c	n	602.37	1	100	100	0	0
071	5	54	?	N	d	1870.34	NA	2	24	8	56	c	n	968.92	1	1000	1000	0	0
071	5	55	?	P	f	1686.91	NA	4	56	8	24	i	j	685.83	1	100	100	0	0
071	5	56	?	P	f	84.73	NA	3	56	8	24	i	j	502.73	1	1000	100	0	0
071	5	57	?	P	f	452.53	NA	7	24	4	56	i	n	636.1	1	100	100	0	0
071	5	58	?	P	f	535.66	NA	2	24	8	56	c	n	585.54	1	100	100	0	0
071	5	59	?	P	f	402.49	NA	8	56	3	24	c	j	552.38	1	100	1000	0	0
071	5	60	?	N	d	1970.11	NA	4	56	7	24	i	n	1203.27	1	1000	1000	0	0
071	5	61	?	N	d	619.14	NA	3	24	7	56	c	n	752.15	1	1000	1000	0	0
071	5	62	?	N	d	3172.17	NA	4	56	7	24	i	n	1620.44	1	1000	100	0	0
071	5	63	?	N	d	51.85	NA	9	24	2	56	i	j	1469.87	1	1000	1000	0	0
071	5	64	?	P	f	502.46	NA	3	24	8	56	c	n	902.88	1	100	100	0	0
071	5	65	?	P	f	368.77	NA	9	24	2	56	i	n	468.18	1	100	100	0	0
071	6	1	?	N	d	4023.36	NA	3	56	7	24	i	n	1169.55	1	1000	100	-1	0
071	6	2	?	N	d	102.23	NA	4	24	8	56	c	n	602.44	1	1000	1000	0	0
071	6	3	?	N	d	218.46	NA	7	24	2	56	i	j	685.9	1	100	1000	0	0
071	6	4	?	N	d	1736.53	NA	3	24	8	56	c	n	735.09	1	1000	100	0	0
071	6	5	?	P	f	486.23	NA	9	56	4	24	c	j	1186.28	1	1000	100	0	0
071	6	6	?	P	f	1135.89	NA	8	24	3	56	i	n	1069.41	1	1000	100	0	0
071	6	7	?	P	f	284.82	NA	7	56	2	24	c	j	686.07	1	100	100	0	0
071	6	8	?	P	f	218.77	NA	4	24	7	56	c	n	1186.59	1	100	100	0	0
071	6	9	?	N	d	619.11	NA	8	56	3	24	c	j	1620.18	1	100	100	0	0
071	6	10	?	N	d	734.64	NA	7	24	4	56	i	j	1002.97	1	1000	100	0	0
071	6	11	?	N	d	768.31	NA	9	56	3	24	c	j	836.44	1	1000	100	0	0
071	6	12	?	N	d	1102.77	NA	7	56	4	24	c	j	1186.89	1	1000	1000	0	0
071	6	13	?	P	f	1436.92	NA	9	24	2	56	i	n	2270.86	1	1000	1000	0	0
071	6	14	?	P	f	552.24	NA	3	56	7	24	i	j	919.07	1	1000	100	0	0
071	6	15	?	P	f	368.55	NA	4	24	8	56	c	n	736.61	1	100	100	0	0
071	6	16	?	P	f	418.96	NA	7	24	3	56	i	n	835.84	1	100	1000	0	0
071	6	17	?	P	f	385.48	NA	2	56	7	24	i	j	869.22	1	100	100	0	0
071	6	18	?	P	f	1136.87	NA	4	56	9	24	i	j	869.38	1	100	1000	0	0
071	6	19	?	P	f	535.97	NA	2	56	8	24	i	j	618.89	1	1000	1000	0	0
071	6	20	?	N	d	769.23	NA	7	56	3	24	c	j	1036.58	1	100	1000	0	0
071	6	21	?	N	d	1253.2	NA	7	24	2	56	i	j	1286.22	1	1000	1000	0	0
071	6	22	?	N	d	218.3	NA	9	56	3	24	c	j	569.1	1	100	100	0	0
071	6	23	?	N	d	234.05	NA	4	24	9	56	c	n	669.35	1	100	100	0	0
071	6	24	?	P	f	335.23	NA	2	56	8	24	i	j	1236.5	1	100	100	0	0
071	6	25	?	P	f	451.77	NA	9	56	4	24	c	j	870.4	1	1000	100	0	0
071	6	26	?	P	f	702.47	NA	3	24	7	56	c	n	1219.63	1	1000	100	0	0
071	6	27	?	P	f	418.81	NA	7	24	2	56	i	n	536.67	1	1000	100	0	0
071	6	28	?	P	f	435.52	NA	9	56	4	24	c	j	718.89	1	1000	1000	0	0
071	6	29	?	N	d	502.33	NA	2	56	7	24	i	n	702.3	1	1000	1000	0	0
071	6	30	?	N	d	335.54	NA	4	56	7	24	i	n	853.05	1	100	100	0	0
071	6	31	?	P	f	469.05	NA	9	24	2	56	i	n	585.78	1	100	100	0	0
071	6	32	?	P	f	335.67	NA	3	24	9	56	c	n	568.76	1	100	1000	0	0
071	6	33	?	N	d	335.39	NA	2	56	9	24	i	n	1019.68	1	100	100	0	0
071	6	34	?	N	d	385.36	NA	3	56	8	24	i	n	1453.25	1	100	100	0	0
071	6	35	?	P	f	100.44	NA	9	24	4	56	i	n	869.29	1	1000	1000	0	0
071	6	36	?	P	f	335.44	NA	9	56	3	24	c	j	685.96	1	100	100	0	0
071	6	37	?	P	f	302.07	NA	9	24	2	56	i	n	635.84	1	100	1000	0	0
071	6	38	?	P	f	485.57	NA	7	56	3	24	c	j	735.2	1	1000	1000	0	0
071	6	39	?	N	d	535.29	NA	8	24	4	56	i	j	936.32	1	100	100	0	0
071	6	40	?	N	d	368.13	NA	7	56	3	24	c	j	1219.04	1	100	1000	0	0
071	6	41	?	P	f	919.62	NA	9	56	2	24	c	j	636.14	1	1000	1000	0	0
071	6	42	?	P	f	302.06	NA	4	56	8	24	i	j	501.21	1	100	1000	0	0
071	6	43	?	N	d	919.49	NA	3	24	8	56	c	n	1536.58	1	1000	1000	0	0
071	6	44	?	N	d	401.44	NA	7	24	2	56	i	n	535.75	0	1000	100	0	0
071	6	45	?	N	d	101.35	NA	8	24	3	56	i	j	1136.07	1	1000	1000	0	1
071	6	46	?	N	d	168.82	NA	4	24	8	56	c	n	869.52	1	1000	1000	0	0
071	6	47	?	P	f	752.91	NA	9	56	3	24	c	j	2187.28	1	100	1000	0	0
071	6	48	?	P	f	352.23	NA	4	24	8	56	c	n	702.24	1	100	1000	0	0
071	6	49	?	P	f	468.21	NA	8	24	2	56	i	n	1203.29	1	1000	100	0	0
071	6	50	?	P	f	185.21	NA	3	56	7	24	i	j	736.54	1	100	1000	0	0
071	6	51	?	N	d	718.77	NA	2	56	9	24	i	n	1352.7	1	1000	1000	0	0
071	6	52	?	N	d	402.17	NA	3	24	9	56	c	n	1086.54	1	1000	100	0	0
071	6	53	?	P	f	67.76	NA	4	24	8	56	c	n	652.57	1	1000	100	0	0
071	6	54	?	P	f	285.29	NA	9	24	2	56	i	n	952.79	1	100	1000	0	0
071	6	55	?	N	d	385.43	NA	4	24	9	56	c	n	852.47	1	100	1000	0	0
071	6	56	?	N	d	552.45	NA	9	24	3	56	i	j	636.34	1	1000	1000	0	0
071	6	57	?	P	f	335.54	NA	8	24	4	56	i	n	519.03	1	100	1000	0	0
071	6	58	?	P	f	485.43	NA	3	56	9	24	i	j	669.45	1	1000	100	0	0
071	6	59	?	P	f	502.07	NA	2	56	7	24	i	j	636.01	1	100	100	0	0
071	6	60	?	P	f	1103.04	NA	8	56	3	24	c	j	568.38	1	1000	100	0	0
071	6	61	?	N	d	952.76	NA	2	24	9	56	c	n	1053.0	1	1000	1000	0	0
071	6	62	?	N	d	869.17	NA	3	56	8	24	i	n	1202.92	1	1000	100	0	0
071	6	63	?	N	d	552.51	NA	4	24	9	56	c	n	1870.46	1	100	100	0	0
071	6	64	?	N	d	519.08	NA	7	56	2	24	c	j	1353.06	1	100	1000	0	0
071	6	65	?	P	f	669.08	NA	3	24	8	56	c	n	451.76	1	100	1000	0	0
