subj	block	trial	task_cue	task	choice_resp	choiceRT	choice_acc	topnum	topsize	botnum	botsize	cong	task_resp	taskRT	task_acc	RSI	CSI	altRep	E1
075	1	1	?	N	f	1854.53	NA	7	24	4	56	i	j	1037.15	1	1000	1000	-1	0
075	1	2	?	P	d	1737.64	NA	9	56	2	24	c	j	819.65	1	100	1000	0	0
075	1	3	?	N	f	1771.09	NA	4	24	7	56	c	n	1921.5	1	100	100	0	0
075	1	4	?	N	f	1904.47	NA	2	24	7	56	c	n	886.33	1	100	100	0	0
075	1	5	?	N	f	1052.86	NA	8	24	4	56	i	j	1304.1	1	100	100	0	0
075	1	6	?	P	d	636.1	NA	7	24	3	56	i	n	1453.84	1	100	100	0	0
075	1	7	?	N	f	1787.62	NA	7	56	4	24	c	j	1037.44	1	100	100	0	0
075	1	8	?	N	f	636.19	NA	9	56	2	24	c	j	586.7	1	1000	100	0	0
075	1	9	?	P	d	319.31	NA	9	24	3	56	i	n	1054.1	1	1000	100	0	0
075	1	10	?	P	d	502.62	NA	2	56	9	24	i	j	853.25	1	100	1000	0	0
075	1	11	?	P	d	502.94	NA	3	24	9	56	c	n	737.03	1	100	1000	0	0
075	1	12	?	N	f	69.07	NA	7	24	2	56	i	j	1120.58	1	1000	100	0	0
075	1	13	?	P	d	1153.17	NA	9	24	4	56	i	n	837.13	1	100	1000	0	0
075	1	14	?	N	f	602.28	NA	2	24	7	56	c	n	1087.07	1	1000	1000	0	0
075	1	15	?	P	d	753.19	NA	3	56	9	24	i	j	453.48	1	1000	100	0	0
075	1	16	?	P	d	369.46	NA	7	56	4	24	c	j	453.29	1	1000	1000	0	0
075	1	17	?	N	f	720.46	NA	2	56	9	24	i	n	1003.6	1	1000	1000	0	0
075	1	18	?	P	d	1988.29	NA	9	56	3	24	c	j	1320.08	1	100	100	0	0
075	1	19	?	N	f	669.33	NA	4	56	8	24	i	n	2972.43	1	1000	100	0	0
075	1	20	?	N	f	767.89	NA	3	24	9	56	c	n	1053.97	1	100	100	0	0
075	1	21	?	N	f	752.52	NA	2	24	7	56	c	n	569.82	1	1000	100	0	0
075	1	22	?	P	d	1136.78	NA	3	24	9	56	c	n	1404.42	1	1000	1000	0	0
075	1	23	?	N	f	4508.66	NA	4	56	7	24	i	n	1871.45	1	100	100	0	0
075	1	24	?	N	f	1070.1	NA	3	56	9	24	i	n	753.78	1	100	100	0	0
075	1	25	?	P	d	1069.51	NA	9	56	4	24	c	j	1120.36	1	1000	1000	0	0
075	1	26	?	P	d	269.1	NA	7	56	2	24	c	j	568.27	1	1000	100	0	0
075	1	27	?	N	f	1770.96	NA	7	56	4	24	c	j	1153.98	1	100	1000	0	0
075	1	28	?	N	f	919.94	NA	2	24	9	56	c	n	619.47	1	1000	100	0	0
075	1	29	?	P	d	1821.0	NA	4	24	9	56	c	n	1704.77	1	100	1000	0	0
075	1	30	?	N	f	553.05	NA	9	24	2	56	i	j	1020.64	1	1000	1000	0	0
075	1	31	?	N	f	920.08	NA	4	24	9	56	c	n	920.33	1	100	100	0	0
075	1	32	?	N	f	369.29	NA	8	24	2	56	i	j	870.47	1	1000	100	0	0
075	1	33	?	P	d	502.87	NA	8	56	3	24	c	j	436.27	1	1000	1000	0	0
075	1	34	?	N	f	719.77	NA	4	56	7	24	i	n	1053.72	1	1000	1000	0	0
075	1	35	?	N	f	770.05	NA	7	24	2	56	i	j	1103.47	1	100	1000	0	0
075	1	36	?	P	d	2288.01	NA	4	56	8	24	i	n	1320.8	0	100	1000	0	0
075	1	37	?	N	f	569.77	NA	9	56	3	24	c	j	885.74	1	1000	100	0	1
075	1	38	?	N	f	285.95	NA	2	24	9	56	c	n	470.19	1	1000	1000	0	0
075	1	39	?	P	d	635.87	NA	8	56	3	24	c	j	934.42	1	1000	100	0	0
075	1	40	?	P	d	302.62	NA	4	24	8	56	c	n	603.11	1	1000	100	0	0
075	1	41	?	P	d	68.94	NA	2	56	9	24	i	j	720.51	1	1000	100	0	0
075	1	42	?	P	d	870.09	NA	7	56	3	24	c	j	653.54	1	100	100	0	0
075	1	43	?	N	f	636.24	NA	9	24	2	56	i	j	1303.33	1	100	100	0	0
075	1	44	?	N	f	119.83	NA	3	24	7	56	c	n	1187.21	1	1000	100	0	0
075	1	45	?	P	d	601.09	NA	2	24	9	56	c	n	1387.85	1	100	1000	0	0
075	1	46	?	P	d	636.42	NA	9	56	3	24	c	j	536.66	1	100	100	0	0
075	1	47	?	P	d	502.98	NA	9	56	4	24	c	j	636.78	1	100	1000	0	0
075	1	48	?	N	f	152.6	NA	2	56	9	24	i	n	1420.58	1	1000	1000	0	0
075	1	49	?	N	f	636.38	NA	4	56	8	24	i	n	1387.35	1	100	1000	0	0
075	1	50	?	N	f	736.33	NA	3	56	7	24	i	n	1437.38	1	1000	100	0	0
075	1	51	?	P	d	719.65	NA	2	56	7	24	i	j	2052.72	1	1000	1000	0	0
075	1	52	?	P	d	286.04	NA	3	56	7	24	i	j	553.37	1	1000	1000	0	0
075	1	53	?	P	d	936.43	NA	4	56	7	24	i	j	802.87	1	100	100	0	0
075	1	54	?	N	f	636.74	NA	2	24	7	56	c	n	1653.89	1	1000	1000	0	0
075	1	55	?	N	f	769.15	NA	8	24	3	56	i	j	837.43	1	100	100	0	0
075	1	56	?	N	f	236.16	NA	9	24	2	56	i	j	1353.52	1	1000	1000	0	0
075	1	57	?	P	d	686.15	NA	3	56	8	24	i	j	1988.5	1	100	1000	0	0
075	1	58	?	P	d	1270.41	NA	8	24	4	56	i	n	736.46	1	100	1000	0	0
075	1	59	?	P	d	1153.43	NA	7	24	2	56	i	n	1004.12	1	1000	1000	0	0
075	1	60	?	N	f	268.63	NA	7	56	4	24	c	j	1554.39	1	1000	1000	0	0
075	1	61	?	N	f	653.01	NA	3	56	7	24	i	n	953.64	1	100	100	0	0
075	1	62	?	N	f	452.72	NA	2	56	7	24	i	n	784.32	1	1000	100	0	0
075	1	63	?	N	f	702.87	NA	3	24	9	56	c	n	970.51	1	100	1000	0	0
075	1	64	?	P	d	469.42	NA	7	56	4	24	c	j	619.59	1	100	1000	0	0
075	1	65	?	P	d	785.92	NA	9	24	2	56	i	n	669.85	1	100	1000	0	0
075	2	1	?	P	d	1219.7	NA	3	56	9	24	i	j	1104.25	1	1000	1000	-1	0
075	2	2	?	P	d	386.14	NA	4	24	7	56	c	n	619.74	1	100	1000	0	0
075	2	3	?	P	d	85.77	NA	3	56	8	24	i	j	470.18	1	1000	1000	0	0
075	2	4	?	P	d	285.92	NA	2	56	8	24	i	j	552.8	1	1000	1000	0	0
075	2	5	?	N	f	135.33	NA	4	24	7	56	c	n	703.54	1	1000	1000	0	0
075	2	6	?	P	d	150.79	NA	2	56	8	24	i	j	569.0	1	1000	1000	0	0
075	2	7	?	N	f	219.18	NA	4	24	8	56	c	n	970.28	1	1000	100	0	0
075	2	8	?	N	f	185.96	NA	2	56	7	24	i	j	487.07	0	1000	1000	0	0
075	2	9	?	P	d	1537.95	NA	9	24	3	56	i	n	1086.79	1	100	1000	0	1
075	2	10	?	N	f	736.43	NA	4	24	9	56	c	n	951.69	1	1000	100	0	0
075	2	11	?	N	f	652.32	NA	3	24	7	56	c	n	669.81	1	100	1000	0	0
075	2	12	?	N	f	269.2	NA	7	56	4	24	c	j	719.92	1	1000	100	0	0
075	2	13	?	P	d	18.7	NA	3	24	8	56	c	n	935.47	1	1000	1000	0	0
075	2	14	?	P	d	452.28	NA	8	56	4	24	c	j	536.53	1	1000	100	0	0
075	2	15	?	N	f	686.44	NA	9	56	3	24	c	j	971.18	1	100	100	0	0
075	2	16	?	N	f	686.44	NA	2	24	8	56	c	n	1704.58	1	100	100	0	0
075	2	17	?	N	f	669.54	NA	9	24	4	56	i	j	1154.33	1	1000	100	0	0
075	2	18	?	P	d	35.59	NA	2	56	8	24	i	j	1070.21	1	1000	100	0	0
075	2	19	?	N	f	653.34	NA	3	24	7	56	c	n	1187.03	1	100	100	0	0
075	2	20	?	P	d	1087.01	NA	2	56	7	24	i	j	2037.56	1	100	1000	0	0
075	2	21	?	P	d	552.95	NA	9	24	3	56	i	n	3122.3	1	1000	100	0	0
075	2	22	?	N	f	586.56	NA	8	24	4	56	i	j	803.76	1	1000	100	0	0
075	2	23	?	N	f	269.33	NA	7	56	3	24	c	j	953.49	1	1000	1000	0	0
075	2	24	?	P	d	202.29	NA	4	56	9	24	i	j	1535.24	1	1000	100	0	0
075	2	25	?	N	f	369.38	NA	3	56	9	24	i	n	1169.74	1	1000	100	0	0
075	2	26	?	N	f	586.53	NA	2	24	9	56	c	n	752.85	1	100	100	0	0
075	2	27	?	N	f	402.76	NA	7	56	4	24	c	j	1436.67	1	100	1000	0	0
075	2	28	?	N	f	452.58	NA	2	56	7	24	i	n	784.27	1	1000	1000	0	0
075	2	29	?	P	d	302.85	NA	9	56	3	24	c	j	1821.32	1	1000	100	0	0
075	2	30	?	P	d	552.9	NA	9	24	4	56	i	n	420.02	1	100	1000	0	0
075	2	31	?	P	d	919.43	NA	3	24	7	56	c	n	619.52	1	100	100	0	0
075	2	32	?	P	d	503.11	NA	7	24	4	56	i	n	1186.77	1	100	100	0	0
075	2	33	?	N	f	168.47	NA	7	56	2	24	c	j	1420.73	1	1000	100	0	0
075	2	34	?	N	f	369.42	NA	3	24	9	56	c	n	1219.84	1	100	1000	0	0
075	2	35	?	P	d	1020.06	NA	7	24	2	56	i	n	1370.79	1	100	100	0	0
075	2	36	?	N	f	436.21	NA	4	24	8	56	c	n	1638.04	1	1000	1000	0	0
075	2	37	?	N	f	670.07	NA	7	56	3	24	c	j	668.28	1	100	1000	0	0
075	2	38	?	P	d	919.94	NA	8	56	4	24	c	j	1404.93	1	100	100	0	0
075	2	39	?	P	d	352.8	NA	8	56	3	24	c	j	687.22	1	1000	1000	0	0
075	2	40	?	N	f	1019.78	NA	2	56	7	24	i	n	1020.55	1	1000	100	0	0
075	2	41	?	P	d	903.26	NA	4	24	7	56	c	n	1153.7	1	100	1000	0	0
075	2	42	?	P	d	619.54	NA	9	56	3	24	c	j	603.05	1	100	1000	0	0
075	2	43	?	P	d	1687.36	NA	4	56	8	24	i	j	519.26	1	100	100	0	0
075	2	44	?	N	f	603.8	NA	8	56	3	24	c	j	586.53	1	100	1000	0	0
075	2	45	?	N	f	185.59	NA	7	56	2	24	c	j	736.51	1	1000	1000	0	0
075	2	46	?	N	f	736.34	NA	8	24	3	56	i	n	1103.8	0	100	100	0	0
075	2	47	?	P	d	1704.35	NA	9	24	4	56	i	n	653.56	1	100	1000	0	1
075	2	48	?	P	d	235.89	NA	2	24	7	56	c	n	770.17	1	1000	100	0	0
075	2	49	?	N	f	685.89	NA	4	56	8	24	i	n	1086.38	1	100	1000	0	0
075	2	50	?	N	f	502.88	NA	9	24	2	56	i	j	686.69	1	100	1000	0	0
075	2	51	?	P	d	335.65	NA	7	56	3	24	c	j	919.78	1	100	100	0	0
075	2	52	?	N	f	486.48	NA	9	24	4	56	i	j	1220.37	1	100	100	0	0
075	2	53	?	P	d	319.07	NA	8	24	2	56	i	n	2305.41	1	1000	1000	0	0
075	2	54	?	P	d	452.66	NA	7	24	3	56	i	n	1037.5	1	100	100	0	0
075	2	55	?	P	d	269.15	NA	9	56	4	24	c	j	2188.39	1	1000	1000	0	0
075	2	56	?	N	f	286.06	NA	3	24	9	56	c	n	987.23	1	1000	100	0	0
075	2	57	?	N	f	2989.1	NA	8	24	2	56	i	j	870.47	1	100	1000	0	0
075	2	58	?	N	f	636.16	NA	4	56	9	24	i	n	851.35	1	1000	1000	0	0
075	2	59	?	P	d	335.76	NA	2	24	9	56	c	n	552.84	1	1000	1000	0	0
075	2	60	?	P	d	1120.0	NA	4	56	8	24	i	j	653.45	1	100	1000	0	0
075	2	61	?	P	d	2288.35	NA	8	24	3	56	i	n	936.02	1	100	100	0	0
075	2	62	?	N	f	235.55	NA	2	56	8	24	i	n	903.97	1	1000	100	0	0
075	2	63	?	N	f	567.96	NA	8	56	4	24	c	j	669.59	1	100	100	0	0
075	2	64	?	N	f	736.38	NA	9	24	3	56	i	j	570.15	1	1000	1000	0	0
075	2	65	?	P	d	1086.45	NA	4	56	9	24	i	j	1621.19	1	100	100	0	0
075	3	1	?	P	d	169.07	NA	3	56	8	24	i	j	670.19	1	1000	100	-1	0
075	3	2	?	P	d	1086.86	NA	2	56	7	24	i	j	887.13	1	1000	100	0	0
075	3	3	?	N	f	269.08	NA	3	56	8	24	i	n	620.28	1	1000	1000	0	0
075	3	4	?	N	f	383.92	NA	2	56	7	24	i	n	1086.86	1	1000	100	0	0
075	3	5	?	N	f	2004.34	NA	3	24	7	56	c	n	570.03	1	100	1000	0	0
075	3	6	?	N	f	1753.51	NA	2	24	9	56	c	n	753.46	1	100	1000	0	0
075	3	7	?	P	d	486.27	NA	3	56	9	24	i	j	1170.41	1	1000	1000	0	0
075	3	8	?	P	d	2236.02	NA	2	56	9	24	i	j	986.14	1	100	100	0	0
075	3	9	?	N	f	402.26	NA	7	56	3	24	c	j	1120.91	1	100	1000	0	0
075	3	10	?	N	f	285.95	NA	4	56	8	24	i	j	1688.39	0	1000	1000	0	0
075	3	11	?	P	d	786.93	NA	2	24	9	56	c	n	484.89	1	1000	1000	0	1
075	3	12	?	N	f	302.74	NA	7	56	4	24	c	j	986.88	1	1000	1000	0	0
075	3	13	?	N	f	302.24	NA	3	24	9	56	c	n	570.41	1	1000	100	0	0
075	3	14	?	P	d	219.25	NA	7	56	2	24	c	j	467.83	1	1000	100	0	0
075	3	15	?	P	d	269.13	NA	3	56	9	24	i	j	552.4	1	1000	100	0	0
075	3	16	?	N	f	252.68	NA	7	24	4	56	i	j	1103.78	1	1000	1000	0	0
075	3	17	?	N	f	2304.45	NA	7	24	3	56	i	j	870.04	1	100	1000	0	0
075	3	18	?	N	f	369.34	NA	8	56	4	24	c	j	1888.03	1	100	100	0	0
075	3	19	?	P	d	251.82	NA	9	56	2	24	c	j	1537.99	1	1000	100	0	0
075	3	20	?	P	d	369.53	NA	3	24	8	56	c	n	652.86	1	100	100	0	0
075	3	21	?	P	d	335.86	NA	2	24	8	56	c	n	2722.32	1	100	1000	0	0
075	3	22	?	N	f	319.25	NA	8	24	3	56	i	j	1287.17	1	1000	100	0	0
075	3	23	?	N	f	402.89	NA	4	24	8	56	c	n	1871.24	1	1000	1000	0	0
075	3	24	?	P	d	586.35	NA	8	56	2	24	c	j	737.2	1	100	100	0	0
075	3	25	?	N	f	135.47	NA	3	24	7	56	c	n	1001.58	1	100	100	0	0
075	3	26	?	P	d	135.69	NA	7	56	2	24	c	j	753.47	1	100	1000	0	0
075	3	27	?	N	f	186.03	NA	8	24	4	56	i	j	1137.12	1	100	100	0	0
075	3	28	?	N	f	252.62	NA	7	24	2	56	i	n	1453.87	0	1000	100	0	0
075	3	29	?	N	f	19240.28	NA	8	56	3	24	c	j	3139.07	1	1000	100	0	1
075	3	30	?	P	d	1020.56	NA	8	56	2	24	c	j	601.31	1	100	1000	0	0
075	3	31	?	P	d	769.33	NA	7	56	3	24	c	j	520.22	1	100	1000	0	0
075	3	32	?	N	f	18.45	NA	8	24	2	56	i	j	736.75	1	1000	1000	0	0
075	3	33	?	N	f	270.39	NA	4	24	7	56	c	n	1520.45	1	1000	100	0	0
075	3	34	?	N	f	285.83	NA	3	56	8	24	i	n	2105.2	1	1000	1000	0	0
075	3	35	?	P	d	235.6	NA	2	56	8	24	i	j	1020.17	1	1000	1000	0	0
075	3	36	?	P	d	503.04	NA	7	56	3	24	c	j	1103.49	1	1000	1000	0	0
075	3	37	?	N	f	769.49	NA	2	56	7	24	i	n	1453.95	1	1000	100	0	0
075	3	38	?	P	d	769.72	NA	3	24	7	56	c	n	1470.27	1	1000	1000	0	0
075	3	39	?	P	d	469.53	NA	8	24	4	56	i	n	535.35	1	100	1000	0	0
075	3	40	?	N	f	768.97	NA	3	24	7	56	c	n	1103.97	1	100	1000	0	0
075	3	41	?	N	f	652.99	NA	9	24	2	56	i	j	1170.61	1	100	1000	0	0
075	3	42	?	N	f	336.15	NA	4	24	7	56	c	n	870.33	1	1000	100	0	0
075	3	43	?	P	d	419.23	NA	9	24	3	56	i	n	1103.69	1	1000	100	0	0
075	3	44	?	P	d	19.03	NA	2	24	7	56	c	n	486.24	1	1000	1000	0	0
075	3	45	?	P	d	402.13	NA	3	24	8	56	c	n	803.62	1	1000	100	0	0
075	3	46	?	N	f	402.92	NA	8	24	2	56	i	j	870.31	1	100	100	0	0
075	3	47	?	N	f	236.06	NA	8	56	3	24	c	j	753.1	1	100	100	0	0
075	3	48	?	N	f	536.25	NA	2	56	7	24	i	n	636.61	1	100	1000	0	0
075	3	49	?	P	d	168.75	NA	9	24	3	56	i	n	587.01	1	100	1000	0	0
075	3	50	?	P	d	285.71	NA	8	24	2	56	i	n	2204.62	1	1000	1000	0	0
075	3	51	?	N	f	519.66	NA	4	56	7	24	i	n	986.46	1	100	100	0	0
075	3	52	?	N	f	452.89	NA	2	56	7	24	i	n	786.14	1	100	100	0	0
075	3	53	?	P	d	619.05	NA	3	56	9	24	i	j	919.89	1	100	1000	0	0
075	3	54	?	P	d	719.69	NA	4	24	7	56	c	n	602.84	1	100	100	0	0
075	3	55	?	N	f	686.88	NA	3	56	9	24	i	n	920.11	1	1000	100	0	0
075	3	56	?	N	f	535.87	NA	4	24	8	56	c	n	4239.7	1	100	100	0	0
075	3	57	?	N	f	285.91	NA	9	56	3	24	c	j	1235.12	1	1000	1000	0	0
075	3	58	?	N	f	352.74	NA	9	56	4	24	c	j	770.28	1	1000	100	0	0
075	3	59	?	N	f	803.16	NA	8	24	2	56	i	j	803.78	1	100	100	0	0
075	3	60	?	P	d	269.45	NA	9	24	3	56	i	n	1854.31	1	100	1000	0	0
075	3	61	?	P	d	386.02	NA	9	56	2	24	c	j	670.32	1	100	100	0	0
075	3	62	?	P	d	786.44	NA	8	56	4	24	c	j	1670.29	1	1000	1000	0	0
075	3	63	?	N	f	569.62	NA	3	56	9	24	i	n	719.64	1	100	100	0	0
075	3	64	?	N	f	802.97	NA	2	56	7	24	i	n	985.12	1	100	100	0	0
075	3	65	?	N	f	335.85	NA	7	24	4	56	i	j	1087.36	1	100	1000	0	0
075	4	1	?	N	f	936.87	NA	4	24	7	56	c	n	1504.35	1	100	100	-1	0
075	4	2	?	N	f	285.64	NA	2	56	7	24	i	n	1020.27	1	1000	1000	0	0
075	4	3	?	P	d	419.06	NA	4	56	8	24	i	j	603.28	1	1000	1000	0	0
075	4	4	?	P	d	302.63	NA	8	56	3	24	c	j	617.76	1	1000	100	0	0
075	4	5	?	P	d	402.8	NA	2	24	7	56	c	n	703.71	1	100	100	0	0
075	4	6	?	P	d	386.03	NA	8	24	3	56	i	n	652.99	1	100	1000	0	0
075	4	7	?	P	d	3322.76	NA	2	24	8	56	c	n	703.23	1	1000	100	0	0
075	4	8	?	N	f	202.46	NA	8	56	3	24	c	j	1037.29	1	100	100	0	0
075	4	9	?	N	f	235.63	NA	2	24	8	56	c	n	920.26	1	100	1000	0	0
075	4	10	?	N	f	236.14	NA	8	24	4	56	i	j	734.23	1	100	1000	0	0
075	4	11	?	N	f	619.86	NA	2	24	8	56	c	n	2071.19	1	100	1000	0	0
075	4	12	?	N	f	386.0	NA	7	56	3	24	c	j	2622.73	1	1000	100	0	0
075	4	13	?	N	f	1403.77	NA	4	56	8	24	i	n	2939.47	1	100	1000	0	0
075	4	14	?	P	d	702.8	NA	3	56	7	24	i	j	1053.66	1	100	100	0	0
075	4	15	?	P	d	169.11	NA	2	56	9	24	i	n	753.77	0	100	100	0	0
075	4	16	?	N	f	284.06	NA	9	24	3	56	i	j	1153.66	1	1000	1000	0	1
075	4	17	?	N	f	703.06	NA	4	24	9	56	c	n	6126.1	1	1000	100	0	0
075	4	18	?	N	f	301.8	NA	8	24	3	56	i	j	786.11	1	100	100	0	0
075	4	19	?	N	f	268.95	NA	4	24	8	56	c	n	1036.46	1	100	100	0	0
075	4	20	?	P	d	67.05	NA	2	24	9	56	c	n	686.12	1	100	100	0	0
075	4	21	?	P	d	135.86	NA	7	56	3	24	c	j	653.08	1	100	1000	0	0
075	4	22	?	N	f	68.76	NA	9	56	4	24	c	j	901.98	1	100	1000	0	0
075	4	23	?	N	f	502.96	NA	2	24	9	56	c	n	920.22	1	1000	100	0	0
075	4	24	?	P	d	219.2	NA	8	56	4	24	c	j	1437.47	1	1000	100	0	0
075	4	25	?	P	d	252.59	NA	3	56	9	24	i	j	786.25	1	1000	100	0	0
075	4	26	?	N	f	186.02	NA	7	56	4	24	c	j	937.5	1	1000	1000	0	0
075	4	27	?	N	f	519.53	NA	7	24	2	56	i	j	903.58	1	1000	1000	0	0
075	4	28	?	P	d	268.67	NA	3	56	7	24	i	j	686.67	1	1000	100	0	0
075	4	29	?	P	d	185.82	NA	2	24	7	56	c	n	569.69	1	1000	1000	0	0
075	4	30	?	N	f	352.65	NA	4	24	8	56	c	n	2486.72	1	1000	1000	0	0
075	4	31	?	N	f	286.3	NA	8	56	3	24	c	j	569.73	1	100	100	0	0
075	4	32	?	P	d	335.66	NA	8	56	4	24	c	j	502.96	1	1000	1000	0	0
075	4	33	?	N	f	786.87	NA	3	24	8	56	c	n	1470.58	1	100	1000	0	0
075	4	34	?	N	f	502.98	NA	2	24	8	56	c	n	953.76	1	100	1000	0	0
075	4	35	?	N	f	7427.53	NA	9	56	4	24	c	j	886.45	1	100	1000	0	0
075	4	36	?	N	f	185.19	NA	2	24	9	56	c	n	669.82	1	1000	1000	0	0
075	4	37	?	P	d	636.21	NA	4	56	7	24	i	j	769.85	1	100	100	0	0
075	4	38	?	P	d	252.54	NA	8	24	3	56	i	n	503.17	1	100	100	0	0
075	4	39	?	P	d	302.32	NA	8	24	4	56	i	n	536.45	1	100	1000	0	0
075	4	40	?	N	f	469.34	NA	2	56	7	24	i	n	919.65	1	1000	1000	0	0
075	4	41	?	N	f	352.62	NA	3	56	8	24	i	n	1120.92	1	1000	1000	0	0
075	4	42	?	N	f	2688.82	NA	8	24	4	56	i	j	2403.34	1	100	1000	0	0
075	4	43	?	N	f	269.45	NA	3	24	9	56	c	n	3506.6	1	1000	100	0	0
075	4	44	?	N	f	319.29	NA	7	24	4	56	i	j	736.72	1	1000	100	0	0
075	4	45	?	N	f	68.88	NA	2	56	8	24	i	n	652.92	1	1000	100	0	0
075	4	46	?	P	d	252.64	NA	7	24	4	56	i	n	1687.86	1	100	100	0	0
075	4	47	?	P	d	435.42	NA	9	56	3	24	c	j	670.06	1	100	100	0	0
075	4	48	?	P	d	1087.0	NA	7	24	2	56	i	n	519.93	1	1000	100	0	0
075	4	49	?	N	f	185.32	NA	9	24	3	56	i	j	1471.2	1	1000	1000	0	0
075	4	50	?	N	f	686.27	NA	8	56	4	24	c	j	769.71	1	100	100	0	0
075	4	51	?	N	f	218.89	NA	8	24	3	56	i	j	852.68	1	100	1000	0	0
075	4	52	?	P	d	3005.35	NA	7	24	2	56	i	n	3774.08	1	1000	1000	0	0
075	4	53	?	P	d	235.59	NA	7	24	3	56	i	n	603.55	1	1000	100	0	0
075	4	54	?	P	d	285.97	NA	8	24	2	56	i	n	537.12	1	100	100	0	0
075	4	55	?	P	d	270.15	NA	9	24	4	56	i	n	469.63	1	1000	100	0	0
075	4	56	?	N	f	434.22	NA	2	24	9	56	c	n	1169.49	1	100	100	0	0
075	4	57	?	N	f	319.32	NA	7	24	4	56	i	j	869.81	1	1000	100	0	0
075	4	58	?	P	d	852.95	NA	7	56	3	24	c	j	6209.36	1	1000	100	0	0
075	4	59	?	N	f	786.35	NA	2	56	9	24	i	n	9112.89	1	100	1000	0	0
075	4	60	?	N	f	453.45	NA	7	24	3	56	i	j	820.02	1	100	1000	0	0
075	4	61	?	N	f	336.01	NA	9	56	4	24	c	j	719.83	1	100	1000	0	0
075	4	62	?	P	d	151.47	NA	9	56	3	24	c	j	717.89	1	1000	1000	0	0
075	4	63	?	P	d	269.4	NA	4	24	7	56	c	n	601.02	1	1000	1000	0	0
075	4	64	?	P	d	134.96	NA	9	56	2	24	c	j	519.82	1	1000	1000	0	0
075	4	65	?	N	f	469.41	NA	4	56	8	24	i	n	1186.97	1	100	100	0	0
075	5	1	?	N	f	269.15	NA	3	56	7	24	i	n	1554.5	1	1000	100	-1	0
075	5	2	?	N	f	269.12	NA	4	24	8	56	c	n	1070.31	1	1000	1000	0	0
075	5	3	?	N	f	1419.92	NA	9	24	2	56	i	j	869.98	1	100	1000	0	0
075	5	4	?	P	d	418.95	NA	3	56	8	24	i	j	4590.76	1	100	1000	0	0
075	5	5	?	P	d	319.4	NA	2	24	9	56	c	n	502.68	1	1000	100	0	0
075	5	6	?	P	d	202.45	NA	3	56	8	24	i	j	603.45	1	100	1000	0	0
075	5	7	?	N	f	317.26	NA	9	56	2	24	c	j	887.23	1	1000	1000	0	0
075	5	8	?	P	d	135.9	NA	9	56	4	24	c	j	2538.67	1	100	100	0	0
075	5	9	?	N	f	5892.0	NA	7	24	2	56	i	j	737.0	1	1000	1000	0	0
075	5	10	?	N	f	369.23	NA	8	24	3	56	i	j	903.58	1	1000	100	0	0
075	5	11	?	P	d	219.3	NA	2	56	7	24	i	j	1353.6	1	1000	1000	0	0
075	5	12	?	N	f	569.74	NA	8	56	4	24	c	j	1203.8	1	1000	1000	0	0
075	5	13	?	P	d	452.65	NA	3	24	8	56	c	n	570.36	1	100	100	0	0
075	5	14	?	P	d	336.21	NA	7	56	4	24	c	j	1104.27	1	100	1000	0	0
075	5	15	?	P	d	969.88	NA	2	56	8	24	i	j	1187.57	1	100	100	0	0
075	5	16	?	P	d	285.32	NA	8	56	3	24	c	j	1203.94	1	1000	100	0	0
075	5	17	?	P	d	1053.52	NA	9	56	2	24	c	j	603.06	1	100	100	0	0
075	5	18	?	N	f	369.4	NA	4	56	8	24	i	n	936.68	1	1000	100	0	0
075	5	19	?	N	f	85.67	NA	9	24	3	56	i	j	753.16	1	1000	100	0	0
075	5	20	?	N	f	603.45	NA	4	24	7	56	c	n	1955.26	1	100	1000	0	0
075	5	21	?	N	f	352.5	NA	2	56	7	24	i	n	852.78	1	1000	1000	0	0
075	5	22	?	P	d	402.21	NA	4	56	9	24	i	j	1036.55	1	100	100	0	0
075	5	23	?	P	d	352.7	NA	9	24	2	56	i	n	569.26	1	100	100	0	0
075	5	24	?	P	d	319.62	NA	7	24	4	56	i	n	1020.65	1	100	1000	0	0
075	5	25	?	N	f	302.72	NA	2	24	7	56	c	n	1604.41	1	1000	1000	0	0
075	5	26	?	N	f	269.52	NA	4	24	7	56	c	n	16320.53	1	1000	1000	0	0
075	5	27	?	N	f	1737.57	NA	3	24	9	56	c	n	870.57	1	100	100	0	0
075	5	28	?	N	f	503.47	NA	9	56	4	24	c	j	5075.31	1	100	100	0	0
075	5	29	?	N	f	183.94	NA	8	56	2	24	c	j	1120.64	1	100	100	0	0
075	5	30	?	P	d	869.83	NA	9	24	3	56	i	n	620.21	1	100	100	0	0
075	5	31	?	P	d	386.17	NA	4	56	8	24	i	n	1070.7	0	100	1000	0	0
075	5	32	?	N	f	20141.3	NA	8	56	2	24	c	j	636.31	1	1000	100	0	1
075	5	33	?	N	f	285.66	NA	4	24	9	56	c	n	769.13	1	1000	1000	0	0
075	5	34	?	N	f	869.77	NA	2	56	8	24	i	n	937.52	1	100	100	0	0
075	5	35	?	N	f	335.42	NA	4	56	9	24	i	n	752.96	1	1000	100	0	0
075	5	36	?	P	d	285.76	NA	3	24	8	56	c	n	586.77	1	1000	100	0	0
075	5	37	?	P	d	269.16	NA	8	24	2	56	i	n	1053.74	1	1000	100	0	0
075	5	38	?	P	d	268.7	NA	8	24	4	56	i	n	552.35	1	1000	1000	0	0
075	5	39	?	N	f	286.06	NA	9	56	3	24	c	j	587.15	1	1000	1000	0	0
075	5	40	?	N	f	252.55	NA	8	56	2	24	c	j	603.28	1	1000	100	0	0
075	5	41	?	N	f	202.59	NA	7	24	4	56	i	j	2238.0	1	1000	100	0	0
075	5	42	?	P	d	369.49	NA	7	24	3	56	i	n	453.0	1	1000	1000	0	0
075	5	43	?	P	d	886.42	NA	2	56	7	24	i	j	587.18	1	100	100	0	0
075	5	44	?	N	f	102.44	NA	4	56	7	24	i	n	953.56	1	1000	1000	0	0
075	5	45	?	N	f	635.63	NA	9	56	2	24	c	j	1854.93	1	100	1000	0	0
075	5	46	?	P	d	385.49	NA	3	24	7	56	c	n	1035.89	1	100	100	0	0
075	5	47	?	P	d	268.96	NA	2	56	7	24	i	j	486.1	1	100	100	0	0
075	5	48	?	P	d	152.56	NA	4	24	9	56	c	n	452.82	1	100	1000	0	0
075	5	49	?	N	f	185.11	NA	3	56	9	24	i	n	653.07	1	100	1000	0	0
075	5	50	?	N	f	286.0	NA	9	24	4	56	i	j	852.97	1	1000	1000	0	0
075	5	51	?	P	d	135.49	NA	9	24	2	56	i	n	452.82	1	100	1000	0	0
075	5	52	?	P	d	219.21	NA	9	24	4	56	i	n	502.34	1	1000	100	0	0
075	5	53	?	N	f	369.21	NA	8	56	2	24	c	j	653.8	1	1000	100	0	0
075	5	54	?	N	f	268.69	NA	4	24	8	56	c	n	552.64	1	1000	100	0	0
075	5	55	?	N	f	269.38	NA	9	24	2	56	i	j	785.9	1	1000	1000	0	0
075	5	56	?	P	d	285.88	NA	7	24	3	56	i	n	1137.13	1	100	100	0	0
075	5	57	?	P	d	2554.69	NA	2	56	9	24	i	j	2672.08	1	1000	100	0	0
075	5	58	?	P	d	419.0	NA	7	24	3	56	i	j	2755.3	0	100	1000	0	0
075	5	59	?	N	f	2221.43	NA	4	24	9	56	c	n	670.24	1	100	1000	0	1
075	5	60	?	N	f	236.01	NA	2	24	9	56	c	j	519.51	0	100	1000	0	0
075	5	61	?	N	f	1770.78	NA	4	24	8	56	c	n	919.97	1	1000	100	0	1
075	5	62	?	N	f	769.71	NA	9	56	3	24	c	j	553.18	1	100	1000	0	0
075	5	63	?	P	d	302.95	NA	2	24	9	56	c	n	836.86	1	100	100	0	0
075	5	64	?	P	d	352.83	NA	7	56	4	24	c	j	1838.14	1	1000	1000	0	0
075	5	65	?	P	d	352.52	NA	8	56	2	24	c	j	400.49	1	100	1000	0	0
075	6	1	?	N	f	1203.66	NA	2	56	9	24	i	n	486.7	1	100	1000	-1	0
075	6	2	?	N	f	101.85	NA	7	24	4	56	i	j	620.39	1	100	1000	0	0
075	6	3	?	N	f	235.54	NA	3	56	9	24	i	n	736.36	1	1000	1000	0	0
075	6	4	?	P	d	302.69	NA	9	56	4	24	c	j	587.38	1	1000	100	0	0
075	6	5	?	P	d	219.35	NA	9	56	3	24	c	j	469.43	1	100	1000	0	0
075	6	6	?	P	d	319.6	NA	2	56	8	24	i	j	653.11	1	1000	100	0	0
075	6	7	?	N	f	217.49	NA	3	56	8	24	i	n	669.09	1	100	1000	0	0
075	6	8	?	N	f	385.9	NA	4	24	7	56	c	n	787.12	1	1000	100	0	0
075	6	9	?	N	f	318.53	NA	8	24	3	56	i	n	7677.95	0	100	1000	0	0
075	6	10	?	P	d	336.13	NA	8	24	4	56	i	n	603.19	1	1000	1000	0	1
075	6	11	?	N	f	135.8	NA	8	56	3	24	c	j	687.18	1	1000	1000	0	0
075	6	12	?	N	f	302.24	NA	7	56	2	24	c	j	937.2	1	1000	1000	0	0
075	6	13	?	N	f	670.42	NA	7	24	3	56	i	j	1304.06	1	100	1000	0	0
075	6	14	?	N	f	335.68	NA	4	24	7	56	c	n	4274.24	1	1000	100	0	0
075	6	15	?	N	f	269.27	NA	2	24	8	56	c	n	1187.45	1	1000	1000	0	0
075	6	16	?	N	f	569.59	NA	8	56	4	24	c	j	536.36	1	100	1000	0	0
075	6	17	?	N	f	185.83	NA	2	56	7	24	i	n	1001.36	1	1000	1000	0	0
075	6	18	?	P	d	302.68	NA	3	24	7	56	c	n	1753.65	1	1000	1000	0	0
075	6	19	?	P	d	285.5	NA	2	56	8	24	i	j	536.24	1	1000	1000	0	0
075	6	20	?	P	d	235.23	NA	8	24	4	56	i	n	452.3	1	1000	1000	0	0
075	6	21	?	P	d	686.96	NA	2	24	9	56	c	n	587.05	1	100	100	0	0
075	6	22	?	P	d	336.13	NA	8	56	3	24	c	j	586.84	1	100	100	0	0
075	6	23	?	P	d	252.45	NA	7	56	4	24	c	j	651.04	1	1000	100	0	0
075	6	24	?	P	d	102.43	NA	7	24	3	56	i	n	536.35	1	1000	100	0	0
075	6	25	?	N	f	617.64	NA	8	24	2	56	i	j	2288.65	1	100	1000	0	0
075	6	26	?	N	f	1553.93	NA	8	24	4	56	i	n	653.24	0	1000	1000	0	0
075	6	27	?	N	f	569.55	NA	2	24	7	56	c	n	734.26	1	100	100	0	1
075	6	28	?	N	f	52.62	NA	4	24	7	56	c	n	1018.14	1	1000	1000	0	0
075	6	29	?	N	f	418.7	NA	7	24	2	56	i	j	652.63	1	100	100	0	0
075	6	30	?	P	d	302.69	NA	3	56	7	24	i	j	1120.55	1	100	100	0	0
075	6	31	?	P	d	300.93	NA	9	24	4	56	i	n	1604.46	1	1000	100	0	0
075	6	32	?	P	d	285.85	NA	3	56	7	24	i	j	1320.74	1	1000	100	0	0
075	6	33	?	P	d	586.27	NA	2	24	7	56	c	n	602.07	1	100	100	0	0
075	6	34	?	N	f	335.55	NA	3	56	9	24	i	n	1437.12	1	100	1000	0	0
075	6	35	?	N	f	369.23	NA	4	56	8	24	i	n	736.38	1	100	100	0	0
075	6	36	?	N	f	436.29	NA	7	56	2	24	c	j	4490.32	1	100	100	0	0
075	6	37	?	N	f	519.61	NA	8	24	3	56	i	n	5792.83	0	1000	100	0	0
075	6	38	?	P	d	436.13	NA	4	24	7	56	c	n	553.11	1	1000	100	0	1
075	6	39	?	P	d	269.23	NA	9	56	3	24	c	j	536.95	1	1000	100	0	0
075	6	40	?	N	f	52.22	NA	2	56	9	24	i	n	3890.2	1	1000	100	0	0
075	6	41	?	N	f	135.86	NA	4	24	8	56	c	n	836.98	1	100	1000	0	0
075	6	42	?	N	f	52.29	NA	8	24	3	56	i	j	5924.8	1	1000	1000	0	0
075	6	43	?	N	f	1837.57	NA	4	56	7	24	i	n	1454.0	1	100	1000	0	0
075	6	44	?	N	f	202.38	NA	3	24	7	56	c	n	668.86	1	100	1000	0	0
075	6	45	?	N	f	369.28	NA	2	56	7	24	i	n	635.65	1	100	100	0	0
075	6	46	?	P	d	336.08	NA	9	24	3	56	i	n	436.57	1	100	1000	0	0
075	6	47	?	P	d	185.71	NA	8	56	4	24	c	j	486.65	1	1000	1000	0	0
075	6	48	?	P	d	385.42	NA	9	56	3	24	c	j	452.11	1	100	100	0	0
075	6	49	?	P	d	235.71	NA	9	56	2	24	c	j	520.04	1	100	1000	0	0
075	6	50	?	P	d	286.12	NA	4	56	8	24	i	n	604.03	0	1000	100	0	0
075	6	51	?	P	d	769.51	NA	7	24	2	56	i	n	586.27	1	100	100	0	1
075	6	52	?	P	d	469.48	NA	3	56	7	24	i	j	834.74	1	100	100	0	0
075	6	53	?	N	f	467.3	NA	4	24	8	56	c	n	620.3	1	100	1000	0	0
075	6	54	?	N	f	452.75	NA	8	56	3	24	c	n	703.12	0	100	1000	0	0
075	6	55	?	N	f	1053.69	NA	4	56	7	24	i	n	752.36	1	100	100	0	1
075	6	56	?	N	f	2.47	NA	3	56	8	24	i	n	953.88	1	1000	100	0	0
075	6	57	?	N	f	686.79	NA	8	24	2	56	i	j	5044.89	1	100	100	0	0
075	6	58	?	N	f	1554.08	NA	3	24	8	56	c	n	769.88	1	100	100	0	0
075	6	59	?	N	f	436.21	NA	4	24	9	56	c	n	986.77	1	1000	100	0	0
075	6	60	?	N	f	4557.22	NA	3	24	7	56	c	n	653.71	1	1000	1000	0	0
075	6	61	?	P	d	269.39	NA	2	56	7	24	i	j	2186.15	1	1000	1000	0	0
075	6	62	?	P	d	469.41	NA	7	56	4	24	c	j	8528.49	1	1000	1000	0	0
075	6	63	?	N	f	570.48	NA	2	24	8	56	c	n	588.0	1	100	1000	0	0
075	6	64	?	N	f	303.61	NA	8	56	4	24	c	j	837.37	1	1000	100	0	0
075	6	65	?	P	d	37.73	NA	9	56	2	24	c	j	871.59	1	100	100	0	0
