subj	block	trial	task_cue	task	choice_resp	choiceRT	choice_acc	topnum	topsize	botnum	botsize	cong	task_resp	taskRT	task_acc	RSI	CSI	altRep	E1
076	1	1	P	P	f	1219.86	1	8	24	4	56	i	n	1002.76	1	1000	1000	-1	0
076	1	2	N	N	d	2587.71	0	2	24	7	56	c	n	1002.87	1	100	100	1	0
076	1	3	N	N	d	753.5	0	3	24	9	56	c	n	868.52	1	1000	100	0	0
076	1	4	P	P	f	819.12	1	8	56	2	24	c	j	502.34	1	100	1000	1	0
076	1	5	P	P	f	2721.33	1	4	24	9	56	c	n	468.44	1	1000	1000	0	0
076	1	6	N	N	d	535.54	0	9	24	2	56	i	j	1119.88	1	1000	100	1	0
076	1	7	P	P	f	669.04	1	3	24	7	56	c	n	852.69	1	1000	1000	1	0
076	1	8	P	P	f	869.28	1	7	56	4	24	c	j	552.58	1	1000	1000	0	0
076	1	9	N	N	d	652.22	0	9	56	3	24	c	j	552.57	1	1000	100	1	0
076	1	10	P	P	f	785.94	1	2	56	7	24	i	j	968.77	1	100	1000	1	0
076	1	11	N	N	d	852.8	0	9	24	3	56	i	j	785.89	1	100	100	1	0
076	1	12	N	N	d	752.31	0	9	24	2	56	i	j	668.22	1	1000	100	0	0
076	1	13	P	P	f	535.75	1	4	56	9	24	i	j	1303.16	1	1000	100	1	0
076	1	14	N	N	d	1470.4	0	9	56	2	24	c	j	552.41	1	100	1000	1	0
076	1	15	N	N	d	986.08	0	7	24	3	56	i	j	685.82	1	100	100	0	0
076	1	16	P	P	f	602.06	1	7	56	4	24	c	j	485.74	1	100	100	1	0
076	1	17	P	P	f	1103.07	1	9	24	3	56	i	n	755.09	1	100	1000	0	0
076	1	18	P	P	f	2204.35	1	8	24	4	56	i	n	869.54	1	100	100	0	0
076	1	19	N	N	d	618.6	0	3	56	8	24	i	n	703.67	1	100	100	1	0
076	1	20	P	P	f	886.09	1	2	24	8	56	c	n	536.08	1	100	100	1	0
076	1	21	N	N	d	602.17	0	4	56	9	24	i	n	869.5	1	1000	100	1	0
076	1	22	N	N	d	1953.95	0	8	56	3	24	c	j	569.07	1	100	100	0	0
076	1	23	P	P	f	468.84	1	7	24	4	56	i	n	751.69	1	100	1000	1	0
076	1	24	P	P	f	1270.4	1	9	56	2	24	c	j	518.39	1	1000	100	0	0
076	1	25	N	N	d	685.76	0	8	24	4	56	i	j	752.27	1	100	1000	1	0
076	1	26	N	N	d	835.69	0	2	56	9	24	i	n	1169.91	1	1000	1000	0	0
076	1	27	N	N	d	618.4	0	4	56	7	24	i	n	852.87	1	100	100	0	0
076	1	28	P	P	f	669.19	1	7	56	2	24	c	j	435.68	1	1000	1000	1	0
076	1	29	P	P	f	1134.85	1	3	24	9	56	c	n	501.77	1	100	1000	0	0
076	1	30	N	N	d	852.88	0	2	56	8	24	i	n	635.17	1	100	1000	1	0
076	1	31	N	N	d	1202.67	0	4	56	8	24	i	n	434.24	1	100	1000	0	0
076	1	32	N	N	d	434.0	0	7	24	2	56	i	j	634.93	1	1000	1000	0	0
076	1	33	P	P	f	435.62	1	7	24	3	56	i	j	1069.82	0	1000	1000	1	0
076	1	34	N	N	d	785.91	0	2	24	9	56	c	n	919.63	1	100	1000	1	1
076	1	35	N	N	d	619.05	0	9	56	4	24	c	j	451.93	1	100	1000	0	0
076	1	36	N	N	d	769.45	0	8	56	2	24	c	j	802.65	1	1000	1000	0	0
076	1	37	N	N	d	769.13	0	8	24	4	56	i	j	635.95	1	100	1000	0	0
076	1	38	N	N	d	1670.21	0	2	24	7	56	c	n	569.03	1	100	1000	0	0
076	1	39	N	N	d	618.22	0	3	24	9	56	c	n	535.49	1	1000	1000	0	0
076	1	40	P	P	f	669.26	1	8	56	2	24	c	j	902.46	1	1000	100	1	0
076	1	41	P	P	f	785.59	1	8	24	3	56	i	j	735.78	0	1000	1000	0	0
076	1	42	P	P	f	568.87	1	2	56	9	24	i	n	585.3	0	100	1000	0	1
076	1	43	N	N	d	601.42	0	4	24	9	56	c	n	969.46	1	1000	1000	1	1
076	1	44	N	N	d	969.28	0	2	56	9	24	i	n	1887.55	1	1000	100	0	0
076	1	45	N	N	d	869.29	0	4	24	8	56	c	n	468.91	1	100	100	0	0
076	1	46	P	P	f	434.99	1	8	24	3	56	i	n	920.24	1	1000	100	1	0
076	1	47	N	N	d	367.73	0	2	56	7	24	i	n	985.93	1	1000	1000	1	0
076	1	48	P	P	f	569.08	1	3	24	9	56	c	n	435.73	1	100	1000	1	0
076	1	49	P	P	f	468.74	1	8	24	2	56	i	n	1002.78	1	1000	100	0	0
076	1	50	N	N	d	318.77	0	9	24	3	56	i	j	685.09	1	1000	1000	1	0
076	1	51	P	P	f	785.39	1	2	56	8	24	i	j	669.41	1	100	100	1	0
076	1	52	P	P	f	502.23	1	4	24	7	56	c	n	752.52	1	1000	100	0	0
076	1	53	N	N	d	502.44	0	7	56	3	24	c	j	584.83	1	100	100	1	0
076	1	54	P	P	f	485.56	1	2	56	7	24	i	j	452.32	1	1000	1000	1	0
076	1	55	P	P	f	485.56	1	4	56	9	24	i	j	835.17	1	1000	100	0	0
076	1	56	P	P	f	534.82	1	3	24	8	56	c	n	602.65	1	100	100	0	0
076	1	57	N	N	d	552.29	0	7	56	4	24	c	j	468.88	1	1000	1000	1	0
076	1	58	N	N	d	368.96	0	9	56	3	24	c	j	585.95	1	1000	100	0	0
076	1	59	P	P	f	418.72	1	4	24	9	56	c	n	468.68	1	1000	100	1	0
076	1	60	P	P	f	535.84	1	2	56	9	24	i	j	752.75	1	100	100	0	0
076	1	61	P	P	f	468.89	1	9	56	4	24	c	j	418.55	1	100	1000	0	0
076	1	62	P	P	f	402.06	1	3	56	8	24	i	n	1218.51	0	1000	1000	0	0
076	1	63	P	P	f	468.45	1	8	56	2	24	c	j	501.37	1	100	100	0	1
076	1	64	N	N	d	518.29	0	3	24	7	56	c	n	753.08	1	1000	100	1	0
076	1	65	P	P	f	818.79	1	9	24	4	56	i	j	734.61	0	100	100	1	0
076	2	1	N	N	d	869.52	0	3	24	9	56	c	n	1168.76	1	100	1000	-1	0
076	2	2	P	P	f	569.02	1	4	24	7	56	c	n	651.94	1	100	1000	1	0
076	2	3	P	P	f	485.62	1	3	24	8	56	c	n	535.53	1	100	1000	0	0
076	2	4	N	N	d	901.99	0	4	24	8	56	c	n	551.47	1	1000	100	1	0
076	2	5	P	P	f	452.27	1	3	56	7	24	i	j	585.03	1	100	100	1	0
076	2	6	N	N	d	752.55	0	4	24	8	56	c	n	500.97	1	1000	1000	1	0
076	2	7	P	P	f	502.16	1	8	56	2	24	c	j	468.99	1	100	100	1	0
076	2	8	N	N	d	868.89	0	4	56	8	24	i	n	1702.28	1	1000	100	1	0
076	2	9	P	P	f	702.44	1	7	24	2	56	i	n	819.32	1	1000	1000	1	0
076	2	10	P	P	f	518.95	1	9	24	3	56	i	n	1253.08	1	100	1000	0	0
076	2	11	P	P	f	552.14	1	7	56	2	24	c	j	485.74	1	1000	1000	0	0
076	2	12	N	N	d	368.46	0	4	56	8	24	i	n	869.64	1	1000	1000	1	0
076	2	13	N	N	d	684.96	0	2	24	7	56	c	n	919.23	1	1000	100	0	0
076	2	14	P	P	f	451.67	1	4	24	8	56	c	n	835.33	1	100	100	1	0
076	2	15	N	N	d	752.47	0	2	24	7	56	c	n	785.8	1	100	1000	1	0
076	2	16	P	P	f	435.55	1	4	24	7	56	c	n	435.53	1	1000	1000	1	0
076	2	17	P	P	f	902.92	1	3	56	7	24	i	j	502.43	1	100	100	0	0
076	2	18	P	P	f	468.79	1	8	56	4	24	c	j	452.47	1	100	100	0	0
076	2	19	P	P	f	502.19	1	3	24	8	56	c	n	502.27	1	1000	100	0	0
076	2	20	P	P	f	535.49	1	2	24	7	56	c	n	586.11	1	100	100	0	0
076	2	21	P	P	f	435.58	1	7	56	4	24	c	j	435.94	1	1000	100	0	0
076	2	22	P	P	f	435.39	1	3	56	7	24	i	j	669.23	1	1000	100	0	0
076	2	23	P	P	f	484.58	1	7	24	2	56	i	n	786.03	1	100	100	0	0
076	2	24	N	N	d	468.03	0	8	24	4	56	i	j	535.76	1	100	1000	1	0
076	2	25	P	P	f	669.06	1	7	24	2	56	i	n	535.68	1	100	1000	1	0
076	2	26	N	N	d	601.86	0	8	24	4	56	i	j	519.31	1	1000	100	1	0
076	2	27	N	N	d	735.78	0	2	56	7	24	i	n	735.18	1	100	1000	0	0
076	2	28	P	P	f	335.38	1	3	56	8	24	i	j	735.78	1	1000	100	1	0
076	2	29	N	N	d	919.49	0	4	56	8	24	i	n	1119.68	1	100	1000	1	0
076	2	30	N	N	d	486.03	0	2	24	8	56	c	n	769.46	1	1000	1000	0	0
076	2	31	P	P	f	468.84	1	7	24	4	56	i	n	535.39	1	100	100	1	0
076	2	32	N	N	d	602.31	0	8	24	3	56	i	j	769.34	1	100	100	1	0
076	2	33	N	N	d	635.75	0	9	56	4	24	c	j	752.56	1	1000	100	0	0
076	2	34	P	P	f	585.5	1	7	56	3	24	c	j	1285.6	1	1000	100	1	0
076	2	35	N	N	d	635.9	0	7	24	2	56	i	n	418.11	0	1000	1000	1	0
076	2	36	N	N	d	500.81	0	8	56	4	24	c	j	467.66	1	1000	1000	0	1
076	2	37	P	P	f	501.45	1	3	56	9	24	i	j	385.48	1	1000	1000	1	0
076	2	38	P	P	f	719.03	1	4	24	8	56	c	n	468.45	1	1000	1000	0	0
076	2	39	N	N	d	568.74	0	9	56	3	24	c	j	1086.5	1	1000	100	1	0
076	2	40	P	P	f	452.0	1	2	24	9	56	c	n	936.24	1	1000	100	1	0
076	2	41	P	P	f	484.78	1	4	56	9	24	i	j	485.65	1	100	1000	0	0
076	2	42	P	P	f	835.53	1	9	56	2	24	c	j	402.57	1	100	1000	0	0
076	2	43	P	P	f	351.94	1	8	24	4	56	i	n	836.13	1	1000	1000	0	0
076	2	44	P	P	f	635.25	1	8	24	2	56	i	n	519.15	1	1000	100	0	0
076	2	45	N	N	d	552.61	0	9	56	3	24	c	j	619.08	1	100	1000	1	0
076	2	46	N	N	d	719.22	0	7	24	2	56	i	j	519.01	1	100	1000	0	0
076	2	47	N	N	d	685.68	0	4	56	7	24	i	n	835.34	1	100	100	0	0
076	2	48	P	P	f	652.47	1	8	56	2	24	c	j	802.56	1	100	1000	1	0
076	2	49	N	N	d	936.02	0	4	56	8	24	i	n	1036.42	1	100	100	1	0
076	2	50	P	P	f	385.11	1	7	24	3	56	i	n	1052.7	1	1000	100	1	0
076	2	51	P	P	f	552.42	1	2	56	7	24	i	j	468.99	1	1000	1000	0	0
076	2	52	N	N	d	852.89	0	8	56	3	24	c	j	652.32	1	100	100	1	0
076	2	53	N	N	d	568.8	0	7	24	2	56	i	j	968.4	1	100	100	0	0
076	2	54	N	N	d	485.56	0	8	24	4	56	i	j	719.58	1	1000	1000	0	0
076	2	55	N	N	d	402.03	0	2	56	8	24	i	n	735.95	1	1000	100	0	0
076	2	56	N	N	d	436.23	0	3	56	7	24	i	n	1001.58	1	1000	1000	0	0
076	2	57	N	N	d	485.55	0	2	24	9	56	c	n	568.89	1	100	100	0	0
076	2	58	P	P	f	519.03	1	3	56	8	24	i	j	569.15	1	100	1000	1	0
076	2	59	N	N	d	652.5	0	2	24	9	56	c	n	602.84	1	100	100	1	0
076	2	60	N	N	d	535.56	0	9	56	3	24	c	j	586.23	1	100	100	0	0
076	2	61	N	N	d	517.35	0	9	24	4	56	i	j	969.05	1	1000	100	0	0
076	2	62	N	N	d	518.39	0	2	24	8	56	c	n	636.4	1	100	1000	0	0
076	2	63	N	N	d	485.8	0	9	56	3	24	c	j	485.72	1	100	1000	0	0
076	2	64	P	P	f	468.38	1	7	56	2	24	c	j	402.4	1	1000	1000	1	0
076	2	65	N	N	d	451.93	0	9	56	4	24	c	j	385.74	1	1000	1000	1	0
076	3	1	P	P	f	452.33	1	7	24	3	56	i	n	836.19	1	1000	1000	-1	0
076	3	2	N	N	d	702.32	0	7	56	4	24	c	j	502.49	1	1000	1000	1	0
076	3	3	P	P	f	752.36	1	3	56	8	24	i	j	402.77	1	1000	1000	1	0
076	3	4	N	N	d	502.27	0	7	24	4	56	i	j	852.46	1	100	100	1	0
076	3	5	P	P	f	869.3	1	2	24	9	56	c	n	869.65	1	100	1000	1	0
076	3	6	P	P	f	535.42	1	3	24	9	56	c	n	835.46	1	1000	100	0	0
076	3	7	N	N	d	501.95	0	4	56	7	24	i	n	886.1	1	100	100	1	0
076	3	8	N	N	d	485.44	0	9	56	3	24	c	j	369.02	1	100	1000	0	0
076	3	9	P	P	f	619.37	1	7	24	4	56	i	n	635.95	1	100	1000	1	0
076	3	10	N	N	d	585.62	0	9	56	2	24	c	j	886.11	1	100	100	1	0
076	3	11	N	N	d	735.84	0	3	56	7	24	i	n	1236.02	1	1000	1000	0	0
076	3	12	N	N	d	451.88	0	9	24	4	56	i	j	619.05	1	100	100	0	0
076	3	13	N	N	d	702.29	0	2	56	7	24	i	n	1269.79	1	100	1000	0	0
076	3	14	P	P	f	685.77	1	7	24	4	56	i	n	602.55	1	1000	1000	1	0
076	3	15	P	P	f	719.57	1	7	56	3	24	c	j	468.7	1	100	100	0	0
076	3	16	N	N	d	518.85	0	4	24	8	56	c	n	635.43	1	1000	1000	1	0
076	3	17	P	P	f	685.69	1	7	56	2	24	c	j	586.35	1	100	100	1	0
076	3	18	N	N	d	685.83	0	4	24	7	56	c	n	885.83	1	100	100	1	0
076	3	19	N	N	d	602.44	0	7	56	3	24	c	j	518.64	1	1000	100	0	0
076	3	20	P	P	f	502.54	1	4	56	7	24	i	j	1052.97	1	100	100	1	0
076	3	21	N	N	d	619.81	0	3	24	7	56	c	n	569.03	1	1000	100	1	0
076	3	22	P	P	f	419.34	1	8	24	4	56	i	n	836.0	1	1000	100	1	0
076	3	23	P	P	f	535.59	1	2	24	9	56	c	n	619.19	1	100	1000	0	0
076	3	24	N	N	d	569.13	0	3	56	8	24	i	n	1653.76	1	100	1000	1	0
076	3	25	N	N	d	451.94	0	2	24	8	56	c	n	735.72	1	100	1000	0	0
076	3	26	P	P	f	468.62	1	8	56	3	24	c	j	602.5	1	100	1000	1	0
076	3	27	N	N	d	736.18	0	9	24	4	56	i	j	702.63	1	1000	1000	1	0
076	3	28	P	P	f	552.22	1	3	24	8	56	c	n	651.17	1	1000	100	1	0
076	3	29	N	N	d	919.9	0	2	24	8	56	c	n	602.47	1	100	1000	1	0
076	3	30	P	P	f	386.11	1	4	56	8	24	i	j	484.94	1	1000	100	1	0
076	3	31	P	P	f	434.67	1	3	24	9	56	c	n	402.33	1	1000	1000	0	0
076	3	32	P	P	f	518.73	1	7	56	4	24	c	j	451.93	1	100	1000	0	0
076	3	33	P	P	f	418.75	1	8	56	3	24	c	j	368.96	1	1000	1000	0	0
076	3	34	P	P	f	384.55	1	7	56	2	24	c	j	535.85	1	1000	100	0	0
076	3	35	N	N	d	401.17	0	3	56	8	24	i	n	501.59	1	1000	1000	1	0
076	3	36	N	N	d	669.19	0	9	24	2	56	i	j	585.84	1	100	1000	0	0
076	3	37	N	N	d	568.91	0	4	56	7	24	i	n	752.52	1	1000	100	0	0
076	3	38	P	P	f	368.88	1	9	56	3	24	c	j	419.32	1	1000	1000	1	0
076	3	39	P	P	f	786.04	1	4	56	8	24	i	j	968.62	1	100	100	0	0
076	3	40	P	P	f	452.17	1	2	24	9	56	c	n	452.12	1	100	100	0	0
076	3	41	N	N	d	401.89	0	7	56	4	24	c	j	519.15	1	1000	100	1	0
076	3	42	N	N	d	452.18	0	7	56	3	24	c	j	418.79	1	100	100	0	0
076	3	43	N	N	d	419.07	0	9	56	4	24	c	j	435.79	1	1000	1000	0	0
076	3	44	P	P	f	485.16	1	9	56	2	24	c	j	435.59	1	1000	100	1	0
076	3	45	N	N	d	503.01	0	7	56	3	24	c	j	886.02	1	100	1000	1	0
076	3	46	P	P	f	501.78	1	2	56	7	24	i	j	668.59	1	100	1000	1	0
076	3	47	N	N	d	452.04	0	9	24	3	56	i	j	552.73	1	1000	100	1	0
076	3	48	N	N	d	769.14	0	4	24	7	56	c	n	719.15	1	100	100	0	0
076	3	49	P	P	f	468.79	1	9	24	2	56	i	n	669.61	1	100	100	1	0
076	3	50	N	N	d	519.09	0	8	24	3	56	i	j	619.28	1	100	1000	1	0
076	3	51	N	N	d	418.15	0	4	56	8	24	i	n	686.11	1	100	100	0	0
076	3	52	N	N	d	451.14	0	3	24	9	56	c	n	569.11	1	1000	1000	0	0
076	3	53	P	P	f	469.1	1	2	24	8	56	c	n	768.91	1	100	100	1	0
076	3	54	P	P	f	535.45	1	9	24	3	56	i	n	836.36	1	100	100	0	0
076	3	55	P	P	f	752.46	1	8	24	4	56	i	n	968.98	1	1000	100	0	0
076	3	56	P	P	f	819.1	1	7	24	2	56	i	n	786.07	1	100	1000	0	0
076	3	57	N	N	d	401.96	0	4	56	9	24	i	n	551.51	1	1000	100	1	0
076	3	58	N	N	d	434.26	0	2	24	7	56	c	n	535.89	1	1000	100	0	0
076	3	59	N	N	d	418.47	0	7	24	4	56	i	j	1051.31	1	1000	100	0	0
076	3	60	N	N	d	468.54	0	7	24	3	56	i	j	885.98	1	1000	1000	0	0
076	3	61	P	P	f	418.75	1	2	24	8	56	c	n	550.98	1	1000	1000	1	0
076	3	62	P	P	f	434.04	1	4	56	9	24	i	j	736.02	1	100	1000	0	0
076	3	63	P	P	f	401.8	1	3	56	7	24	i	j	802.94	1	1000	1000	0	0
076	3	64	P	P	f	402.1	1	4	56	9	24	i	j	552.57	1	1000	100	0	0
076	3	65	P	P	f	402.14	1	7	24	2	56	i	n	367.57	1	1000	1000	0	0
076	4	1	P	P	f	434.97	1	3	24	9	56	c	n	502.47	1	1000	100	-1	0
076	4	2	N	N	d	635.73	0	2	56	8	24	i	n	869.5	1	1000	100	1	0
076	4	3	P	P	f	452.04	1	4	56	9	24	i	j	385.79	1	1000	1000	1	0
076	4	4	P	P	f	468.88	1	8	56	2	24	c	j	451.75	1	100	100	0	0
076	4	5	P	P	f	402.27	1	4	56	9	24	i	j	352.39	1	1000	1000	0	0
076	4	6	P	P	f	468.87	1	9	56	3	24	c	j	369.74	1	100	1000	0	0
076	4	7	P	P	f	335.17	1	2	24	9	56	c	n	419.04	1	1000	100	0	0
076	4	8	P	P	f	517.39	1	9	56	4	24	c	j	468.97	1	1000	100	0	0
076	4	9	P	P	f	435.59	1	2	24	7	56	c	n	468.37	1	100	1000	0	0
076	4	10	P	P	f	401.81	1	8	24	4	56	i	n	402.77	1	1000	100	0	0
076	4	11	P	P	f	333.89	1	8	24	2	56	i	n	385.46	1	1000	1000	0	0
076	4	12	N	N	f	351.97	0	9	56	4	24	c	j	701.59	1	1000	1000	1	0
076	4	13	N	N	d	534.72	0	7	24	2	56	i	j	819.51	1	100	1000	0	0
076	4	14	P	P	f	401.91	1	7	56	4	24	c	j	502.59	1	1000	100	1	0
076	4	15	P	P	f	652.29	1	9	24	3	56	i	n	869.64	1	100	1000	0	0
076	4	16	N	N	d	517.51	0	2	24	8	56	c	n	702.1	1	100	1000	1	0
076	4	17	N	N	d	418.82	0	3	24	8	56	c	n	451.28	1	1000	1000	0	0
076	4	18	N	N	d	335.36	0	7	56	4	24	c	j	502.64	1	1000	100	0	0
076	4	19	N	N	d	469.48	0	2	24	9	56	c	n	685.02	1	100	100	0	0
076	4	20	P	P	f	435.39	1	8	56	4	24	c	j	452.4	1	1000	1000	1	0
076	4	21	N	N	d	485.61	0	3	56	9	24	i	n	652.6	1	100	100	1	0
076	4	22	N	N	d	535.01	0	4	24	7	56	c	n	468.38	1	100	1000	0	0
076	4	23	P	P	f	502.17	1	8	24	3	56	i	n	752.68	1	100	100	1	0
076	4	24	P	P	f	1068.99	1	2	24	7	56	c	n	1119.67	1	100	100	0	0
076	4	25	N	N	d	602.7	0	3	56	9	24	i	n	3054.91	1	1000	1000	1	0
076	4	26	P	P	f	551.19	1	4	24	8	56	c	n	452.31	1	100	100	1	0
076	4	27	N	N	d	502.17	0	7	56	2	24	c	j	1036.1	1	100	1000	1	0
076	4	28	P	P	f	502.89	1	8	24	4	56	i	n	1787.16	1	1000	100	1	0
076	4	29	N	N	d	568.85	0	9	56	3	24	c	j	552.57	1	1000	100	1	0
076	4	30	P	P	f	502.39	1	2	56	8	24	i	j	469.08	1	100	100	1	0
076	4	31	N	N	d	468.97	0	4	24	8	56	c	n	435.65	1	1000	1000	1	0
076	4	32	N	N	d	535.75	0	3	56	9	24	i	n	652.08	1	1000	100	0	0
076	4	33	N	N	d	485.31	0	9	56	2	24	c	j	552.51	1	100	100	0	0
076	4	34	P	P	f	519.04	1	9	24	3	56	i	n	670.0	1	100	1000	1	0
076	4	35	N	N	d	702.36	0	4	24	9	56	c	n	1253.35	1	1000	100	1	0
076	4	36	P	P	f	518.93	1	2	56	8	24	i	j	934.87	1	100	1000	1	0
076	4	37	P	P	f	535.98	1	4	56	8	24	i	j	402.43	1	100	1000	0	0
076	4	38	P	P	f	468.43	1	7	56	3	24	c	j	402.36	1	1000	1000	0	0
076	4	39	P	P	f	535.86	1	2	56	7	24	i	j	718.51	1	100	100	0	0
076	4	40	N	N	d	535.55	0	9	24	4	56	i	j	635.82	1	1000	1000	1	0
076	4	41	P	P	f	619.08	1	3	24	7	56	c	n	786.05	1	1000	100	1	0
076	4	42	N	N	d	500.99	0	7	24	4	56	i	j	635.8	1	100	1000	1	0
076	4	43	N	N	d	518.77	0	9	56	3	24	c	j	435.82	1	1000	1000	0	0
076	4	44	N	N	d	552.15	0	8	24	2	56	i	j	652.58	1	100	100	0	0
076	4	45	N	N	d	535.65	0	7	56	3	24	c	j	451.91	1	100	1000	0	0
076	4	46	P	P	f	518.93	1	2	56	9	24	i	j	903.05	1	1000	100	1	0
076	4	47	N	N	d	534.6	0	3	24	8	56	c	n	502.43	1	100	100	1	0
076	4	48	N	N	d	569.05	0	7	24	4	56	i	j	602.4	1	1000	1000	0	0
076	4	49	N	N	d	435.61	0	8	24	3	56	i	j	752.87	1	1000	100	0	0
076	4	50	P	P	f	535.2	1	2	24	9	56	c	n	569.8	1	1000	1000	1	0
076	4	51	N	N	d	552.22	0	7	56	3	24	c	j	452.8	1	100	100	1	0
076	4	52	N	N	d	534.67	0	4	56	9	24	i	n	1069.71	1	100	1000	0	0
076	4	53	N	N	d	752.6	0	2	56	9	24	i	n	585.7	1	1000	1000	0	0
076	4	54	P	P	f	602.34	1	7	56	3	24	c	j	885.2	1	100	1000	1	0
076	4	55	P	P	f	919.27	1	2	24	8	56	c	n	419.06	1	1000	1000	0	0
076	4	56	P	P	f	485.09	1	9	24	4	56	i	n	636.05	1	100	100	0	0
076	4	57	N	N	d	517.54	0	7	24	3	56	i	j	635.84	1	100	100	1	0
076	4	58	N	N	d	535.77	0	4	24	8	56	c	n	652.38	1	1000	100	0	0
076	4	59	N	N	d	434.66	0	3	56	7	24	i	n	969.7	1	100	100	0	0
076	4	60	P	P	f	567.35	1	7	56	2	24	c	j	400.9	1	100	100	1	0
076	4	61	P	P	f	468.65	1	3	56	7	24	i	j	736.11	1	1000	100	0	0
076	4	62	N	N	d	552.3	0	4	56	7	24	i	n	469.55	1	100	1000	1	0
076	4	63	P	P	f	535.71	1	8	24	3	56	i	n	452.44	1	1000	1000	1	0
076	4	64	N	N	d	452.0	0	9	24	2	56	i	j	535.71	1	1000	100	1	0
076	4	65	P	P	f	469.02	1	3	24	7	56	c	n	402.27	1	100	1000	1	0
076	5	1	P	P	f	802.46	1	7	56	3	24	c	j	717.22	1	1000	100	-1	0
076	5	2	N	N	d	536.09	0	8	24	2	56	i	j	785.51	1	100	100	1	0
076	5	3	N	N	d	902.56	0	3	24	9	56	c	n	535.92	1	100	1000	0	0
076	5	4	P	P	f	318.36	1	9	56	2	24	c	j	435.68	1	1000	100	1	0
076	5	5	P	P	f	402.02	1	8	24	4	56	i	n	368.92	1	1000	1000	0	0
076	5	6	N	N	d	318.34	0	7	56	3	24	c	j	669.28	1	1000	100	1	0
076	5	7	P	P	f	318.96	1	8	56	2	24	c	j	517.72	1	1000	1000	1	0
076	5	8	P	P	f	535.94	1	9	56	4	24	c	j	468.65	1	100	100	0	0
076	5	9	P	P	f	569.04	1	3	56	7	24	i	j	335.42	1	1000	1000	0	0
076	5	10	P	P	f	335.16	1	2	56	8	24	i	j	452.55	1	1000	100	0	0
076	5	11	N	N	d	435.26	0	4	56	8	24	i	n	569.11	1	100	100	1	0
076	5	12	P	P	f	535.21	1	2	56	8	24	i	j	452.2	1	100	1000	1	0
076	5	13	P	P	f	485.81	1	8	56	4	24	c	j	518.99	1	100	1000	0	0
076	5	14	N	N	d	418.95	0	7	24	2	56	i	j	852.28	1	1000	1000	1	0
076	5	15	P	P	f	535.53	1	9	24	4	56	i	n	919.69	1	100	100	1	0
076	5	16	P	P	f	519.01	1	9	24	3	56	i	n	569.34	1	100	100	0	0
076	5	17	N	N	d	468.76	0	9	56	2	24	c	j	535.87	1	100	1000	1	0
076	5	18	N	N	d	435.56	0	7	24	3	56	i	j	969.06	1	1000	1000	0	0
076	5	19	N	N	d	518.76	0	8	24	2	56	i	j	485.93	1	100	100	0	0
076	5	20	P	P	f	451.92	1	8	56	4	24	c	j	469.02	1	100	1000	1	0
076	5	21	P	P	f	485.68	1	7	56	2	24	c	j	486.2	1	1000	100	0	0
076	5	22	N	N	d	734.91	0	3	56	8	24	i	n	569.15	1	1000	100	1	0
076	5	23	N	N	d	552.23	0	9	24	4	56	i	j	802.77	1	1000	100	0	0
076	5	24	N	N	d	485.0	0	2	24	7	56	c	n	502.3	1	100	100	0	0
076	5	25	P	P	f	502.08	1	3	24	7	56	c	n	502.53	1	100	1000	1	0
076	5	26	P	P	f	435.91	1	4	24	9	56	c	n	536.18	1	1000	100	0	0
076	5	27	N	N	d	468.96	0	3	24	7	56	c	n	536.09	1	100	100	1	0
076	5	28	N	N	d	552.41	0	9	56	2	24	c	j	419.15	1	100	1000	0	0
076	5	29	P	P	f	452.48	1	4	56	7	24	i	j	785.68	1	1000	100	1	0
076	5	30	N	N	d	452.29	0	9	24	2	56	i	j	736.19	1	1000	100	1	0
076	5	31	N	N	d	502.19	0	3	56	8	24	i	n	618.75	1	100	1000	0	0
076	5	32	P	P	f	468.76	1	7	56	4	24	c	j	452.39	1	100	100	1	0
076	5	33	P	P	f	469.84	1	2	56	8	24	i	j	435.52	1	100	100	0	0
076	5	34	N	N	d	485.75	0	4	56	9	24	i	n	551.63	1	1000	1000	1	0
076	5	35	N	N	d	518.33	0	2	56	9	24	i	n	452.47	1	100	100	0	0
076	5	36	N	N	d	601.91	0	4	24	7	56	c	n	585.95	1	1000	1000	0	0
076	5	37	N	N	d	518.79	0	8	56	2	24	c	j	685.28	1	1000	100	0	0
076	5	38	N	N	d	417.36	0	8	56	3	24	c	j	769.35	1	1000	1000	0	0
076	5	39	P	P	f	584.23	1	4	56	9	24	i	j	702.52	1	100	100	1	0
076	5	40	P	P	f	535.62	1	3	24	7	56	c	n	417.52	1	100	100	0	0
076	5	41	P	P	f	485.74	1	8	56	2	24	c	j	469.0	1	1000	1000	0	0
076	5	42	N	N	d	485.38	0	4	24	7	56	c	n	552.5	1	1000	100	1	0
076	5	43	P	P	f	285.5	1	3	56	7	24	i	j	351.89	1	1000	1000	1	0
076	5	44	P	P	f	385.04	1	8	24	2	56	i	n	686.01	1	1000	100	0	0
076	5	45	P	P	f	452.32	1	3	56	9	24	i	j	318.75	1	100	1000	0	0
076	5	46	P	P	f	535.54	1	4	24	9	56	c	n	418.63	1	1000	1000	0	0
076	5	47	N	N	d	619.57	0	3	56	7	24	i	n	969.62	1	100	1000	1	0
076	5	48	P	P	f	735.3	1	2	24	9	56	c	n	568.91	1	100	100	1	0
076	5	49	N	N	d	1052.78	0	3	24	8	56	c	n	651.95	1	100	1000	1	0
076	5	50	P	P	f	502.41	1	4	24	8	56	c	n	452.13	1	1000	100	1	0
076	5	51	N	N	d	335.43	0	7	56	3	24	c	j	535.93	1	1000	1000	1	0
076	5	52	P	P	f	585.81	1	9	24	2	56	i	n	885.58	1	1000	100	1	0
076	5	53	N	N	d	502.29	0	9	56	4	24	c	j	551.75	1	100	100	1	0
076	5	54	N	N	d	568.99	0	8	24	3	56	i	j	502.41	1	100	1000	0	0
076	5	55	N	N	d	502.67	0	2	56	7	24	i	n	869.4	1	1000	1000	0	0
076	5	56	N	N	d	468.85	0	9	56	3	24	c	j	469.3	1	100	100	0	0
076	5	57	P	P	f	518.9	1	2	24	8	56	c	n	402.23	1	1000	1000	1	0
076	5	58	N	N	d	469.1	0	4	24	9	56	c	n	518.87	1	1000	1000	1	0
076	5	59	N	N	d	368.76	0	2	24	8	56	c	n	485.63	1	1000	100	0	0
076	5	60	P	P	f	368.8	1	8	24	3	56	i	n	369.03	1	1000	1000	1	0
076	5	61	P	P	f	552.4	1	7	24	4	56	i	n	1386.97	1	100	1000	0	0
076	5	62	P	P	f	1903.48	1	3	24	8	56	c	n	519.16	1	100	1000	0	0
076	5	63	N	N	d	469.4	0	9	24	4	56	i	j	602.92	1	100	1000	1	0
076	5	64	N	N	d	1069.56	0	3	56	8	24	i	n	1069.66	1	1000	100	0	0
076	5	65	P	P	f	502.68	1	7	24	2	56	i	n	635.89	1	100	1000	1	0
076	6	1	P	P	f	1019.61	1	4	56	7	24	i	j	518.25	1	100	100	-1	0
076	6	2	N	N	d	502.03	0	8	56	2	24	c	j	435.7	1	100	100	1	0
076	6	3	P	P	f	435.38	1	8	56	3	24	c	j	368.9	1	100	1000	1	0
076	6	4	N	N	d	685.91	0	7	24	4	56	i	j	919.66	1	100	1000	1	0
076	6	5	P	P	f	702.62	1	2	24	8	56	c	n	568.95	1	100	100	1	0
076	6	6	N	N	d	486.15	0	8	56	4	24	c	j	435.62	1	1000	1000	1	0
076	6	7	P	P	f	418.92	1	9	24	2	56	i	n	351.93	1	1000	1000	1	0
076	6	8	P	P	f	669.07	1	8	24	4	56	i	n	719.82	1	1000	100	0	0
076	6	9	P	P	f	418.89	1	3	56	7	24	i	j	436.16	1	1000	1000	0	0
076	6	10	N	N	d	585.56	0	8	56	2	24	c	j	1086.42	1	100	1000	1	0
076	6	11	N	N	d	550.96	0	3	56	9	24	i	n	535.92	1	100	100	0	0
076	6	12	P	P	f	368.44	1	4	56	7	24	i	j	669.57	1	1000	1000	1	0
076	6	13	N	N	d	484.81	0	2	56	8	24	i	n	702.82	1	100	100	1	0
076	6	14	P	P	f	518.35	1	7	24	3	56	i	n	919.62	1	100	100	1	0
076	6	15	P	P	f	652.42	1	7	56	2	24	c	j	652.44	1	1000	100	0	0
076	6	16	N	N	d	418.47	0	4	24	7	56	c	n	769.33	1	100	100	1	0
076	6	17	N	N	d	418.68	0	9	24	3	56	i	j	701.98	1	100	1000	0	0
076	6	18	P	P	f	468.88	1	2	24	9	56	c	n	752.1	1	100	1000	1	0
076	6	19	N	N	d	869.26	0	3	24	8	56	c	n	435.53	1	1000	1000	1	0
076	6	20	N	N	d	518.81	0	9	56	4	24	c	j	719.2	1	1000	100	0	0
076	6	21	N	N	d	668.42	0	2	56	7	24	i	n	485.64	1	1000	1000	0	0
076	6	22	N	N	d	502.03	0	4	56	8	24	i	n	819.45	1	1000	100	0	0
076	6	23	P	P	f	485.17	1	2	56	7	24	i	j	501.86	1	100	100	1	0
076	6	24	P	P	f	802.75	1	8	56	4	24	c	j	502.09	1	100	1000	0	0
076	6	25	P	P	f	451.23	1	2	24	8	56	c	n	502.37	1	1000	1000	0	0
076	6	26	N	N	d	502.3	0	7	24	3	56	i	j	552.1	1	100	100	1	0
076	6	27	P	P	f	652.28	1	8	24	4	56	i	n	719.51	1	1000	100	1	0
076	6	28	N	N	d	685.91	0	3	24	7	56	c	n	502.69	1	100	1000	1	0
076	6	29	P	P	f	435.64	1	2	56	8	24	i	j	535.96	1	1000	100	1	0
076	6	30	N	N	d	584.62	0	8	24	4	56	i	j	569.17	1	1000	1000	1	0
076	6	31	N	N	d	502.53	0	7	56	2	24	c	j	752.61	1	100	100	0	0
076	6	32	P	P	f	635.78	1	9	56	4	24	c	j	652.87	1	100	100	1	0
076	6	33	N	N	d	652.03	0	3	56	9	24	i	n	1002.23	1	100	1000	1	0
076	6	34	N	N	d	652.15	0	7	24	2	56	i	j	852.93	1	1000	100	0	0
076	6	35	P	P	f	550.95	1	4	56	9	24	i	j	552.61	1	100	1000	1	0
076	6	36	N	N	d	669.36	0	8	24	3	56	i	j	868.88	1	1000	100	1	0
076	6	37	N	N	d	669.0	0	2	24	8	56	c	n	702.77	1	1000	100	0	0
076	6	38	N	N	d	452.54	0	7	24	3	56	i	j	569.02	1	100	100	0	0
076	6	39	N	N	d	435.75	0	8	24	2	56	i	j	452.39	1	1000	1000	0	0
076	6	40	P	P	f	502.16	1	4	24	7	56	c	n	485.71	1	1000	1000	1	0
076	6	41	N	N	d	635.59	0	2	24	9	56	c	n	669.71	1	1000	100	1	0
076	6	42	N	N	d	702.49	0	4	56	7	24	i	n	619.0	1	100	1000	0	0
076	6	43	N	N	d	434.5	0	7	56	2	24	c	j	618.96	1	100	1000	0	0
076	6	44	N	N	d	468.78	0	3	24	7	56	c	n	518.86	1	100	100	0	0
076	6	45	P	P	f	584.87	1	2	24	7	56	c	n	852.77	1	1000	100	1	0
076	6	46	N	N	d	318.74	0	3	56	7	24	i	n	502.33	1	1000	1000	1	0
076	6	47	N	N	d	402.19	0	9	56	4	24	c	j	502.26	1	1000	1000	0	0
076	6	48	N	N	d	468.83	0	2	24	8	56	c	n	435.57	1	100	1000	0	0
076	6	49	P	P	f	452.05	1	8	24	3	56	i	n	368.98	1	100	1000	1	0
076	6	50	P	P	f	418.92	1	9	56	4	24	c	j	402.1	1	100	100	0	0
076	6	51	P	P	f	401.95	1	9	24	3	56	i	n	368.94	1	100	1000	0	0
076	6	52	P	P	f	485.83	1	4	56	9	24	i	j	518.19	1	100	100	0	0
076	6	53	P	P	f	602.61	1	2	56	8	24	i	j	469.17	1	100	1000	0	0
076	6	54	P	P	f	435.65	1	8	24	3	56	i	n	435.62	1	100	100	0	0
076	6	55	N	N	d	302.27	0	9	56	2	24	c	j	468.99	1	1000	100	1	0
076	6	56	N	N	d	385.34	0	3	24	7	56	c	n	384.75	1	1000	1000	0	0
076	6	57	P	P	f	352.14	1	7	56	2	24	c	j	402.11	1	1000	100	1	0
076	6	58	P	P	f	419.01	1	4	24	9	56	c	n	385.59	1	100	100	0	0
076	6	59	N	N	d	485.49	0	2	56	9	24	i	n	502.62	1	1000	100	1	0
076	6	60	P	P	f	335.34	1	9	56	4	24	c	j	435.85	1	1000	1000	1	0
076	6	61	P	P	f	385.53	1	9	56	3	24	c	j	702.46	1	1000	1000	0	0
076	6	62	P	P	f	368.57	1	2	24	8	56	c	n	418.82	1	1000	100	0	0
076	6	63	P	P	f	401.23	1	3	56	9	24	i	j	401.64	1	1000	100	0	0
076	6	64	P	P	f	368.54	1	7	24	4	56	i	n	369.06	1	1000	1000	0	0
076	6	65	P	P	f	469.08	1	2	24	8	56	c	n	385.68	1	100	1000	0	0
