subj	block	trial	task_cue	task	choice_resp	choiceRT	choice_acc	topnum	topsize	botnum	botsize	cong	task_resp	taskRT	task_acc	RSI	CSI	altRep	E1
077	1	1	?	P	f	3506.62	NA	8	24	4	56	i	n	1570.84	1	100	1000	-1	0
077	1	2	?	N	d	636.48	NA	8	24	3	56	i	j	3189.87	1	1000	1000	0	0
077	1	3	?	P	f	953.03	NA	4	56	8	24	i	j	2472.58	1	100	1000	0	0
077	1	4	?	N	d	1420.62	NA	3	24	8	56	c	n	1003.14	1	1000	1000	0	0
077	1	5	?	N	d	1170.38	NA	7	24	2	56	i	j	1001.5	1	100	1000	0	0
077	1	6	?	P	f	252.35	NA	4	56	9	24	i	j	3689.69	1	1000	100	0	0
077	1	7	?	P	f	436.1	NA	3	24	7	56	c	n	1370.19	1	1000	100	0	0
077	1	8	?	N	d	836.44	NA	7	56	4	24	c	j	970.71	1	100	1000	0	0
077	1	9	?	N	d	3172.62	NA	8	24	3	56	i	j	2270.14	1	1000	1000	0	0
077	1	10	?	N	d	1921.42	NA	4	56	7	24	i	n	2337.72	1	1000	100	0	0
077	1	11	?	P	f	119.28	NA	8	24	3	56	i	n	1604.2	1	1000	100	0	0
077	1	12	?	P	f	737.01	NA	8	56	4	24	c	j	919.53	1	1000	100	0	0
077	1	13	?	P	f	2237.79	NA	7	24	2	56	i	n	2054.18	1	100	1000	0	0
077	1	14	?	N	d	350.61	NA	3	24	8	56	c	n	769.71	1	100	1000	0	0
077	1	15	?	P	f	1437.53	NA	7	56	4	24	c	j	4607.13	1	1000	1000	0	0
077	1	16	?	N	d	2705.33	NA	3	56	9	24	i	n	1170.75	1	1000	100	0	0
077	1	17	?	N	d	803.06	NA	2	56	9	24	i	n	870.6	1	100	100	0	0
077	1	18	?	P	f	1420.76	NA	3	24	7	56	c	n	1504.44	1	1000	100	0	0
077	1	19	?	P	f	552.31	NA	7	24	4	56	i	n	586.74	1	100	1000	0	0
077	1	20	?	P	f	587.05	NA	2	24	9	56	c	n	636.42	1	100	1000	0	0
077	1	21	?	P	f	2271.25	NA	8	56	4	24	c	j	652.77	1	1000	100	0	0
077	1	22	?	N	d	468.68	NA	3	56	7	24	i	n	1805.04	1	100	1000	0	0
077	1	23	?	N	d	685.62	NA	7	56	2	24	c	j	3055.44	1	100	100	0	0
077	1	24	?	P	f	1186.91	NA	7	24	4	56	i	n	2205.15	1	1000	1000	0	0
077	1	25	?	P	f	552.94	NA	3	56	7	24	i	j	869.65	1	100	1000	0	0
077	1	26	?	N	d	335.96	NA	4	56	8	24	i	n	1501.83	1	100	100	0	0
077	1	27	?	N	d	1151.67	NA	8	24	3	56	i	j	1837.49	1	1000	1000	0	0
077	1	28	?	P	f	969.88	NA	4	56	8	24	i	j	1186.86	1	100	1000	0	0
077	1	29	?	N	d	736.6	NA	9	24	2	56	i	j	1085.51	1	1000	100	0	0
077	1	30	?	P	f	653.47	NA	9	56	4	24	c	j	801.64	1	1000	1000	0	0
077	1	31	?	N	d	1237.22	NA	2	56	7	24	i	n	1037.45	1	100	100	0	0
077	1	32	?	P	f	786.52	NA	3	24	7	56	c	n	1487.68	1	100	100	0	0
077	1	33	?	N	d	585.99	NA	9	56	2	24	c	j	1370.38	1	100	1000	0	0
077	1	34	?	P	f	1937.74	NA	9	24	3	56	i	n	1271.23	1	1000	1000	0	0
077	1	35	?	N	d	219.15	NA	9	56	4	24	c	j	803.22	1	1000	1000	0	0
077	1	36	?	P	f	302.48	NA	3	24	9	56	c	n	820.01	1	1000	1000	0	0
077	1	37	?	N	d	486.48	NA	4	24	8	56	c	n	2037.71	1	100	100	0	0
077	1	38	?	P	f	869.34	NA	2	24	7	56	c	n	903.43	1	100	1000	0	0
077	1	39	?	N	d	369.4	NA	7	24	4	56	i	j	1771.14	1	100	100	0	0
077	1	40	?	N	d	402.74	NA	2	56	9	24	i	n	1403.99	1	1000	1000	0	0
077	1	41	?	P	f	2888.14	NA	7	56	3	24	c	j	703.38	1	1000	1000	0	0
077	1	42	?	P	f	535.86	NA	8	56	4	24	c	j	987.02	1	100	100	0	0
077	1	43	?	N	d	1203.68	NA	8	56	2	24	c	j	651.44	1	1000	100	0	0
077	1	44	?	P	f	903.38	NA	3	24	7	56	c	n	653.69	1	1000	1000	0	0
077	1	45	?	N	d	836.5	NA	2	56	8	24	i	n	736.3	1	100	1000	0	0
077	1	46	?	N	d	52.05	NA	9	24	3	56	i	j	1121.46	1	1000	100	0	0
077	1	47	?	P	f	2554.38	NA	4	24	7	56	c	n	537.07	1	1000	1000	0	0
077	1	48	?	P	f	636.09	NA	3	24	7	56	c	n	887.38	1	100	100	0	0
077	1	49	?	P	f	318.74	NA	9	56	4	24	c	j	1020.3	1	1000	100	0	0
077	1	50	?	P	f	803.5	NA	2	24	8	56	c	n	803.4	1	1000	100	0	0
077	1	51	?	N	d	652.77	NA	3	56	8	24	i	n	1203.71	1	1000	1000	0	0
077	1	52	?	N	d	569.46	NA	7	56	2	24	c	j	1034.61	1	100	100	0	0
077	1	53	?	P	f	535.98	NA	4	56	7	24	i	j	937.05	1	100	100	0	0
077	1	54	?	N	d	686.29	NA	2	56	8	24	i	n	737.02	1	100	100	0	0
077	1	55	?	P	f	852.81	NA	7	24	3	56	i	n	786.19	1	1000	100	0	0
077	1	56	?	N	d	1069.95	NA	2	24	8	56	c	n	1069.5	1	1000	100	0	0
077	1	57	?	P	f	1220.2	NA	3	24	9	56	c	n	1404.34	1	100	1000	0	0
077	1	58	?	N	d	368.46	NA	8	24	2	56	i	j	920.55	1	1000	100	0	0
077	1	59	?	P	f	118.86	NA	4	56	8	24	i	j	1053.73	1	1000	1000	0	0
077	1	60	?	N	d	1635.67	NA	9	56	2	24	c	j	1620.87	1	100	1000	0	0
077	1	61	?	P	f	1854.79	NA	7	56	4	24	c	j	937.25	1	100	100	0	0
077	1	62	?	N	d	903.42	NA	9	24	2	56	i	j	719.53	1	100	100	0	0
077	1	63	?	P	f	552.83	NA	3	24	8	56	c	n	1270.41	1	100	100	0	0
077	1	64	?	N	d	503.01	NA	7	24	4	56	i	j	987.1	1	100	100	0	0
077	1	65	?	P	f	703.19	NA	7	56	2	24	c	j	686.74	1	100	1000	0	0
077	2	1	?	N	d	3122.43	NA	7	56	4	24	c	j	1170.83	1	1000	1000	-1	0
077	2	2	?	P	f	552.89	NA	7	24	3	56	i	n	1118.74	1	100	1000	0	0
077	2	3	?	P	f	1003.62	NA	4	56	8	24	i	j	854.63	1	1000	100	0	0
077	2	4	?	P	f	703.18	NA	8	56	2	24	c	j	637.17	1	100	1000	0	0
077	2	5	?	N	d	686.64	NA	9	56	4	24	c	j	903.05	1	100	100	0	0
077	2	6	?	N	d	1787.66	NA	9	56	3	24	c	j	651.01	1	1000	100	0	0
077	2	7	?	N	d	369.47	NA	7	24	2	56	i	n	670.33	0	1000	100	0	0
077	2	8	?	N	d	517.65	NA	4	24	9	56	c	n	1504.7	1	1000	1000	0	1
077	2	9	?	P	f	452.83	NA	2	56	8	24	i	j	603.61	1	100	1000	0	0
077	2	10	?	P	f	285.93	NA	4	56	9	24	i	j	586.8	1	1000	100	0	0
077	2	11	?	P	f	870.32	NA	3	24	8	56	c	n	503.42	1	100	100	0	0
077	2	12	?	N	d	1153.67	NA	8	24	4	56	i	j	770.19	1	1000	100	0	0
077	2	13	?	P	f	1821.99	NA	8	56	3	24	c	j	702.79	1	1000	100	0	0
077	2	14	?	N	d	2505.2	NA	7	56	2	24	c	j	1070.51	1	1000	1000	0	0
077	2	15	?	P	f	402.94	NA	4	56	7	24	i	j	502.76	1	1000	1000	0	0
077	2	16	?	N	d	1036.71	NA	2	56	9	24	i	n	737.0	1	100	100	0	0
077	2	17	?	P	f	52.32	NA	7	24	3	56	i	j	1004.45	0	1000	100	0	0
077	2	18	?	N	d	4323.75	NA	8	56	4	24	c	j	1020.79	1	100	100	0	1
077	2	19	?	P	f	3339.27	NA	7	24	2	56	i	n	1403.76	1	100	100	0	0
077	2	20	?	P	f	52.27	NA	4	24	7	56	c	n	903.18	1	1000	100	0	0
077	2	21	?	P	f	1504.05	NA	7	24	2	56	i	n	1954.65	1	1000	1000	0	0
077	2	22	?	P	f	1286.39	NA	3	56	9	24	i	j	687.14	1	100	100	0	0
077	2	23	?	N	d	552.68	NA	2	56	7	24	i	n	3071.16	1	100	100	0	0
077	2	24	?	N	d	619.76	NA	8	24	3	56	i	j	3322.76	1	100	100	0	0
077	2	25	?	P	f	336.1	NA	2	24	7	56	c	n	1337.81	1	1000	100	0	0
077	2	26	?	P	f	136.04	NA	3	56	8	24	i	j	1621.46	1	1000	1000	0	0
077	2	27	?	N	d	819.68	NA	7	56	4	24	c	j	853.88	1	100	100	0	0
077	2	28	?	N	d	1020.21	NA	9	24	2	56	i	j	669.78	1	100	1000	0	0
077	2	29	?	N	d	19.05	NA	7	56	3	24	c	j	1403.26	1	1000	100	0	0
077	2	30	?	N	d	1486.84	NA	4	56	8	24	i	n	986.86	1	1000	1000	0	0
077	2	31	?	P	f	268.91	NA	9	56	3	24	c	j	1187.65	1	1000	100	0	0
077	2	32	?	P	f	1036.57	NA	4	24	7	56	c	n	486.42	1	100	1000	0	0
077	2	33	?	P	f	753.52	NA	9	24	3	56	i	n	703.17	1	100	1000	0	0
077	2	34	?	N	d	2455.25	NA	8	56	2	24	c	j	550.85	1	100	1000	0	0
077	2	35	?	P	f	1268.72	NA	4	24	9	56	c	n	1470.34	1	100	100	0	0
077	2	36	?	N	d	970.36	NA	2	24	7	56	c	n	669.91	1	100	100	0	0
077	2	37	?	P	f	1203.67	NA	7	24	4	56	i	n	1904.59	1	100	100	0	0
077	2	38	?	N	d	1685.35	NA	3	56	7	24	i	n	653.46	1	1000	100	0	0
077	2	39	?	P	f	803.19	NA	7	56	2	24	c	j	486.63	1	100	1000	0	0
077	2	40	?	N	d	419.49	NA	8	24	3	56	i	j	569.54	1	1000	1000	0	0
077	2	41	?	P	f	35.53	NA	2	24	8	56	c	n	1036.57	1	1000	100	0	0
077	2	42	?	P	f	319.72	NA	9	24	3	56	i	n	553.01	1	1000	1000	0	0
077	2	43	?	N	d	1370.67	NA	4	24	9	56	c	n	652.75	1	100	1000	0	0
077	2	44	?	N	d	269.29	NA	8	56	2	24	c	j	1287.61	1	1000	1000	0	0
077	2	45	?	N	d	135.62	NA	3	24	7	56	c	n	1004.07	1	1000	100	0	0
077	2	46	?	N	d	85.06	NA	4	24	7	56	c	n	670.04	1	1000	1000	0	0
077	2	47	?	N	d	436.29	NA	2	24	9	56	c	n	653.08	1	1000	1000	0	0
077	2	48	?	N	d	1286.96	NA	4	24	9	56	c	n	786.88	1	100	1000	0	0
077	2	49	?	N	d	352.64	NA	3	56	8	24	i	n	1036.87	1	1000	1000	0	0
077	2	50	?	N	d	686.44	NA	7	24	4	56	i	j	1170.62	1	100	100	0	0
077	2	51	?	P	f	502.9	NA	2	24	7	56	c	n	870.28	1	100	100	0	0
077	2	52	?	P	f	252.52	NA	8	24	3	56	i	n	1602.63	1	1000	100	0	0
077	2	53	?	P	f	3138.52	NA	2	24	9	56	c	n	1203.94	1	100	1000	0	0
077	2	54	?	N	d	386.2	NA	7	56	4	24	c	j	835.18	1	1000	1000	0	0
077	2	55	?	P	f	486.16	NA	9	56	3	24	c	j	1054.01	1	100	100	0	0
077	2	56	?	N	d	52.14	NA	2	56	9	24	i	n	1186.71	1	1000	100	0	0
077	2	57	?	P	f	620.62	NA	8	56	3	24	c	j	887.51	1	100	1000	0	0
077	2	58	?	P	f	736.53	NA	8	24	2	56	i	n	803.67	1	100	1000	0	0
077	2	59	?	N	d	502.78	NA	3	56	7	24	i	n	1487.22	1	100	1000	0	0
077	2	60	?	N	d	19.17	NA	2	24	8	56	c	n	1153.86	1	1000	1000	0	0
077	2	61	?	P	f	302.09	NA	4	56	9	24	i	j	1271.2	1	1000	1000	0	0
077	2	62	?	P	f	286.11	NA	8	56	3	24	c	j	653.06	1	1000	1000	0	0
077	2	63	?	P	f	636.21	NA	4	56	7	24	i	j	469.4	1	100	1000	0	0
077	2	64	?	N	d	2454.33	NA	9	24	2	56	i	j	720.69	1	100	1000	0	0
077	2	65	?	N	d	802.41	NA	8	24	4	56	i	j	1284.98	1	100	100	0	0
077	3	1	?	N	d	1837.91	NA	2	24	7	56	c	n	936.79	1	100	100	-1	0
077	3	2	?	P	f	820.16	NA	7	24	3	56	i	n	1437.53	1	1000	100	0	0
077	3	3	?	P	f	269.31	NA	8	24	4	56	i	n	737.18	1	1000	1000	0	0
077	3	4	?	P	f	268.99	NA	2	24	7	56	c	n	567.82	1	1000	100	0	0
077	3	5	?	P	f	936.67	NA	9	24	3	56	i	n	786.94	1	100	100	0	0
077	3	6	?	P	f	352.55	NA	7	24	4	56	i	n	787.23	1	1000	1000	0	0
077	3	7	?	P	f	285.78	NA	7	56	3	24	c	j	653.05	1	1000	1000	0	0
077	3	8	?	N	d	419.72	NA	7	56	4	24	c	j	553.22	1	1000	1000	0	0
077	3	9	?	N	d	319.44	NA	9	56	2	24	c	j	754.12	1	1000	100	0	0
077	3	10	?	N	d	1654.18	NA	9	24	3	56	i	j	903.75	1	1000	1000	0	0
077	3	11	?	P	f	335.96	NA	2	24	7	56	c	n	487.0	1	1000	1000	0	0
077	3	12	?	N	d	2286.24	NA	3	56	9	24	i	n	903.74	1	100	100	0	0
077	3	13	?	P	f	302.56	NA	8	24	4	56	i	n	1070.81	1	1000	1000	0	0
077	3	14	?	P	f	1003.32	NA	2	56	9	24	i	j	1054.06	1	1000	100	0	0
077	3	15	?	P	f	1002.72	NA	4	24	7	56	c	n	817.84	1	100	100	0	0
077	3	16	?	N	d	236.14	NA	7	24	3	56	i	n	937.24	0	1000	100	0	0
077	3	17	?	N	d	1468.62	NA	4	56	7	24	i	n	1302.45	1	100	1000	0	1
077	3	18	?	P	f	2772.36	NA	3	56	8	24	i	j	1220.77	1	1000	100	0	0
077	3	19	?	N	d	318.69	NA	9	24	2	56	i	j	1036.89	1	1000	1000	0	0
077	3	20	?	N	d	352.94	NA	3	56	9	24	i	n	2219.56	1	1000	100	0	0
077	3	21	?	N	d	1337.34	NA	9	24	4	56	i	j	770.82	1	100	100	0	0
077	3	22	?	P	f	769.96	NA	8	56	3	24	c	j	486.25	1	100	1000	0	0
077	3	23	?	P	f	970.51	NA	8	56	2	24	c	j	536.38	1	100	100	0	0
077	3	24	?	P	f	135.86	NA	9	24	4	56	i	n	786.68	1	1000	100	0	0
077	3	25	?	P	f	1103.47	NA	3	24	9	56	c	n	636.19	1	100	1000	0	0
077	3	26	?	P	f	352.46	NA	2	24	8	56	c	n	619.51	1	1000	100	0	0
077	3	27	?	P	f	1520.29	NA	3	56	7	24	i	j	919.96	1	100	100	0	0
077	3	28	?	P	f	800.78	NA	2	24	8	56	c	j	1571.16	0	100	1000	0	0
077	3	29	?	N	d	2371.2	NA	7	24	4	56	i	j	936.89	1	1000	1000	0	1
077	3	30	?	N	d	501.07	NA	3	24	9	56	c	n	737.21	1	100	100	0	0
077	3	31	?	N	d	536.32	NA	9	24	4	56	i	j	703.36	1	100	100	0	0
077	3	32	?	N	d	269.73	NA	2	24	9	56	c	n	536.65	1	1000	1000	0	0
077	3	33	?	N	d	318.73	NA	9	56	3	24	c	j	603.07	1	1000	100	0	0
077	3	34	?	N	d	586.39	NA	2	24	7	56	c	n	569.62	1	100	1000	0	0
077	3	35	?	N	d	2104.51	NA	4	24	8	56	c	n	1554.77	1	1000	1000	0	0
077	3	36	?	N	d	302.46	NA	3	24	8	56	c	n	670.21	1	1000	100	0	0
077	3	37	?	N	d	820.1	NA	4	56	7	24	i	n	736.27	1	100	100	0	0
077	3	38	?	N	d	769.48	NA	7	24	3	56	i	j	836.31	1	100	1000	0	0
077	3	39	?	P	f	753.0	NA	7	24	2	56	i	n	1004.02	1	100	100	0	0
077	3	40	?	P	f	552.52	NA	3	56	8	24	i	j	503.14	1	100	1000	0	0
077	3	41	?	P	f	669.74	NA	2	24	7	56	c	n	586.82	1	100	100	0	0
077	3	42	?	P	f	384.12	NA	8	56	3	24	c	j	536.14	1	1000	100	0	0
077	3	43	?	P	f	1537.24	NA	8	24	4	56	i	n	703.49	1	1000	100	0	0
077	3	44	?	P	f	603.21	NA	2	56	7	24	i	j	1871.43	1	100	1000	0	0
077	3	45	?	P	f	619.54	NA	4	56	9	24	i	j	652.48	1	100	1000	0	0
077	3	46	?	P	f	970.18	NA	9	24	3	56	i	n	820.51	1	100	1000	0	0
077	3	47	?	N	d	819.63	NA	7	56	4	24	c	j	901.44	1	100	100	0	0
077	3	48	?	N	d	1269.9	NA	7	56	3	24	c	j	1187.45	1	100	1000	0	0
077	3	49	?	N	d	736.12	NA	7	56	4	24	c	j	668.17	1	1000	1000	0	0
077	3	50	?	N	d	452.95	NA	9	56	3	24	c	j	602.49	1	1000	1000	0	0
077	3	51	?	N	d	285.65	NA	2	24	7	56	c	n	1020.34	1	1000	100	0	0
077	3	52	?	N	d	319.34	NA	3	24	8	56	c	n	1754.37	1	1000	1000	0	0
077	3	53	?	P	f	1170.54	NA	4	24	7	56	c	n	435.94	1	100	1000	0	0
077	3	54	?	P	f	517.62	NA	9	56	3	24	c	j	386.22	1	100	1000	0	0
077	3	55	?	P	f	85.85	NA	2	56	9	24	i	j	634.55	1	1000	100	0	0
077	3	56	?	P	f	1170.44	NA	9	56	3	24	c	j	503.03	1	100	100	0	0
077	3	57	?	P	f	269.56	NA	7	56	2	24	c	j	453.18	1	1000	100	0	0
077	3	58	?	P	f	969.83	NA	3	56	8	24	i	n	786.67	0	100	100	0	0
077	3	59	?	N	d	570.59	NA	9	24	2	56	i	j	1552.43	1	1000	1000	0	1
077	3	60	?	N	d	1020.01	NA	7	56	4	24	c	j	720.07	1	100	100	0	0
077	3	61	?	N	d	1220.26	NA	3	56	7	24	i	n	1137.89	1	1000	1000	0	0
077	3	62	?	P	f	1187.34	NA	7	56	4	24	c	j	536.72	1	100	1000	0	0
077	3	63	?	P	f	819.86	NA	7	24	3	56	i	n	720.39	1	100	1000	0	0
077	3	64	?	N	d	786.24	NA	4	56	7	24	i	n	1037.12	1	100	1000	0	0
077	3	65	?	N	d	769.25	NA	3	24	8	56	c	n	1470.9	1	100	100	0	0
077	4	1	?	N	d	5041.11	NA	3	56	7	24	i	n	1236.95	1	100	100	-1	0
077	4	2	?	N	d	69.3	NA	7	24	4	56	i	j	1253.89	1	1000	100	0	0
077	4	3	?	P	f	936.49	NA	8	24	3	56	i	n	987.01	1	100	100	0	0
077	4	4	?	P	f	919.83	NA	8	56	4	24	c	j	502.87	1	1000	100	0	0
077	4	5	?	P	f	369.02	NA	3	24	8	56	c	n	569.97	1	1000	1000	0	0
077	4	6	?	N	d	986.15	NA	4	56	9	24	i	n	784.3	1	1000	1000	0	0
077	4	7	?	N	d	669.95	NA	8	56	3	24	c	j	769.71	1	100	100	0	0
077	4	8	?	N	d	1120.22	NA	2	24	7	56	c	n	569.93	1	100	100	0	0
077	4	9	?	N	d	1553.86	NA	4	56	9	24	i	n	870.2	1	100	1000	0	0
077	4	10	?	P	f	1120.58	NA	9	56	3	24	c	j	603.31	1	1000	1000	0	0
077	4	11	?	P	f	535.76	NA	7	56	2	24	c	j	803.67	1	100	100	0	0
077	4	12	?	P	f	202.82	NA	4	24	9	56	c	n	402.42	1	1000	1000	0	0
077	4	13	?	P	f	302.81	NA	3	24	8	56	c	n	636.7	1	1000	100	0	0
077	4	14	?	P	f	819.98	NA	8	24	4	56	i	n	620.38	1	100	1000	0	0
077	4	15	?	P	f	919.41	NA	3	24	7	56	c	n	737.3	1	100	100	0	0
077	4	16	?	P	f	369.28	NA	9	56	2	24	c	j	670.13	1	1000	100	0	0
077	4	17	?	N	d	786.18	NA	7	56	4	24	c	j	1070.14	1	100	100	0	0
077	4	18	?	N	d	586.3	NA	7	24	3	56	i	j	753.41	1	100	1000	0	0
077	4	19	?	N	d	769.73	NA	4	56	8	24	i	n	586.7	1	100	1000	0	0
077	4	20	?	N	d	1987.92	NA	3	56	9	24	i	n	669.96	1	1000	1000	0	0
077	4	21	?	P	f	1186.79	NA	7	24	2	56	i	n	1071.01	1	100	100	0	0
077	4	22	?	P	f	703.14	NA	3	24	8	56	c	n	601.11	1	100	1000	0	0
077	4	23	?	P	f	1268.52	NA	4	24	7	56	c	n	787.24	1	100	1000	0	0
077	4	24	?	N	d	286.1	NA	8	56	3	24	c	j	1037.26	1	1000	100	0	0
077	4	25	?	N	d	369.19	NA	9	56	2	24	c	j	653.42	1	1000	100	0	0
077	4	26	?	N	d	770.1	NA	9	56	3	24	c	j	1003.32	1	100	1000	0	0
077	4	27	?	P	f	1436.84	NA	4	56	8	24	i	j	436.01	1	1000	1000	0	0
077	4	28	?	P	f	686.02	NA	2	56	7	24	i	j	570.29	1	100	100	0	0
077	4	29	?	P	f	252.35	NA	4	56	7	24	i	j	1870.72	1	1000	1000	0	0
077	4	30	?	P	f	903.46	NA	3	56	7	24	i	j	887.23	1	100	100	0	0
077	4	31	?	P	f	1053.51	NA	2	56	9	24	i	j	687.01	1	100	1000	0	0
077	4	32	?	P	f	736.6	NA	4	24	8	56	c	n	1086.81	1	1000	1000	0	0
077	4	33	?	N	d	701.29	NA	3	56	7	24	i	n	936.6	1	1000	100	0	0
077	4	34	?	N	d	302.46	NA	9	24	2	56	i	j	1087.81	1	1000	100	0	0
077	4	35	?	P	f	369.49	NA	7	56	3	24	c	j	437.27	1	1000	1000	0	0
077	4	36	?	N	d	402.69	NA	2	56	9	24	i	n	1621.3	1	1000	100	0	0
077	4	37	?	N	d	752.73	NA	4	24	8	56	c	n	619.52	1	100	100	0	0
077	4	38	?	P	f	1854.33	NA	2	56	9	24	i	j	486.47	1	1000	1000	0	0
077	4	39	?	N	d	603.23	NA	7	24	4	56	i	j	836.86	1	1000	100	0	0
077	4	40	?	N	d	569.87	NA	2	24	7	56	c	n	736.13	1	1000	100	0	0
077	4	41	?	N	d	18.81	NA	3	56	7	24	i	n	787.24	1	1000	100	0	0
077	4	42	?	N	d	168.93	NA	9	56	2	24	c	j	586.85	1	1000	1000	0	0
077	4	43	?	P	f	419.5	NA	3	56	8	24	i	j	1136.76	1	1000	100	0	0
077	4	44	?	P	f	519.56	NA	7	24	4	56	i	n	569.81	1	100	100	0	0
077	4	45	?	P	f	536.23	NA	3	56	7	24	i	j	536.5	1	100	1000	0	0
077	4	46	?	P	f	703.13	NA	4	56	8	24	i	j	1270.78	1	100	1000	0	0
077	4	47	?	N	d	953.5	NA	7	56	2	24	c	j	1285.85	1	100	1000	0	0
077	4	48	?	N	d	753.56	NA	8	24	3	56	i	j	653.72	1	1000	1000	0	0
077	4	49	?	P	f	5208.02	NA	4	24	8	56	c	n	652.9	1	100	1000	0	0
077	4	50	?	P	f	1437.3	NA	3	24	8	56	c	n	1020.34	1	1000	100	0	0
077	4	51	?	P	f	1203.49	NA	2	24	9	56	c	n	636.26	1	100	100	0	0
077	4	52	?	P	f	1070.11	NA	9	56	4	24	c	j	452.68	1	1000	1000	0	0
077	4	53	?	N	d	669.75	NA	3	56	8	24	i	n	870.33	1	100	100	0	0
077	4	54	?	N	d	653.71	NA	2	56	7	24	i	n	886.96	1	1000	100	0	0
077	4	55	?	N	d	1603.93	NA	4	24	9	56	c	n	1120.93	1	1000	1000	0	0
077	4	56	?	P	f	786.49	NA	2	24	7	56	c	n	803.45	1	1000	100	0	0
077	4	57	?	P	f	619.85	NA	7	56	4	24	c	j	536.81	1	100	1000	0	0
077	4	58	?	P	f	485.97	NA	2	56	8	24	i	n	653.31	0	100	100	0	0
077	4	59	?	P	f	269.21	NA	9	24	3	56	i	n	684.71	1	1000	1000	0	1
077	4	60	?	P	f	536.08	NA	9	24	2	56	i	n	636.06	1	100	1000	0	0
077	4	61	?	P	f	552.66	NA	7	56	4	24	c	j	619.72	1	100	1000	0	0
077	4	62	?	N	d	819.87	NA	7	24	2	56	i	j	803.42	1	100	100	0	0
077	4	63	?	N	d	1103.11	NA	3	56	7	24	i	n	837.47	1	1000	1000	0	0
077	4	64	?	N	d	686.79	NA	9	56	4	24	c	j	753.43	1	100	100	0	0
077	4	65	?	P	f	853.13	NA	2	24	8	56	c	n	553.69	1	100	1000	0	0
077	5	1	?	N	d	4090.13	NA	3	56	8	24	i	n	819.97	1	100	100	-1	0
077	5	2	?	N	d	402.9	NA	4	24	7	56	c	n	519.64	1	1000	100	0	0
077	5	3	?	P	f	218.95	NA	2	56	9	24	i	j	469.56	1	1000	1000	0	0
077	5	4	?	P	f	235.6	NA	9	56	3	24	c	j	536.5	1	1000	1000	0	0
077	5	5	?	P	f	503.03	NA	8	24	2	56	i	n	1053.97	1	100	1000	0	0
077	5	6	?	P	f	450.98	NA	4	56	9	24	i	j	1020.06	1	100	100	0	0
077	5	7	?	P	f	435.61	NA	7	56	2	24	c	j	470.13	1	100	1000	0	0
077	5	8	?	N	d	469.44	NA	9	24	4	56	i	j	669.72	1	100	100	0	0
077	5	9	?	N	d	419.16	NA	8	56	3	24	c	n	703.16	0	100	100	0	0
077	5	10	?	N	d	2454.38	NA	4	24	9	56	c	n	6043.26	1	100	1000	0	1
077	5	11	?	N	d	302.7	NA	7	56	2	24	c	j	636.83	1	1000	100	0	0
077	5	12	?	P	f	967.89	NA	7	24	4	56	i	n	1821.19	1	1000	1000	0	0
077	5	13	?	P	f	418.97	NA	2	56	8	24	i	n	720.08	0	100	100	0	0
077	5	14	?	P	f	852.84	NA	4	56	8	24	i	j	552.54	1	100	1000	0	1
077	5	15	?	N	d	269.39	NA	7	24	3	56	i	j	587.29	1	1000	1000	0	0
077	5	16	?	P	f	302.72	NA	8	56	2	24	c	j	584.54	1	1000	100	0	0
077	5	17	?	N	d	302.16	NA	4	24	8	56	c	n	970.77	1	1000	100	0	0
077	5	18	?	P	f	636.22	NA	8	56	2	24	c	j	437.13	1	100	1000	0	0
077	5	19	?	N	d	837.04	NA	3	24	8	56	c	n	1387.12	1	100	1000	0	0
077	5	20	?	P	f	586.52	NA	9	56	4	24	c	j	1037.05	1	100	100	0	0
077	5	21	?	N	d	1318.19	NA	8	56	3	24	c	j	620.32	1	100	1000	0	0
077	5	22	?	P	f	1270.6	NA	4	24	8	56	c	n	1170.74	1	100	100	0	0
077	5	23	?	N	d	100.43	NA	2	24	8	56	c	n	1187.5	1	1000	100	0	0
077	5	24	?	P	f	19.13	NA	4	56	9	24	i	j	1001.13	1	1000	100	0	0
077	5	25	?	N	d	268.5	NA	8	56	2	24	c	j	1187.73	1	1000	100	0	0
077	5	26	?	P	f	1186.34	NA	4	56	7	24	i	j	1020.16	1	1000	100	0	0
077	5	27	?	P	f	569.58	NA	3	24	9	56	c	n	1303.8	1	1000	1000	0	0
077	5	28	?	P	f	268.92	NA	9	56	2	24	c	j	486.24	1	1000	1000	0	0
077	5	29	?	N	d	318.99	NA	4	56	9	24	i	n	986.3	1	1000	100	0	0
077	5	30	?	N	d	236.24	NA	9	24	2	56	i	j	954.16	1	1000	100	0	0
077	5	31	?	N	d	836.66	NA	4	56	9	24	i	n	1387.22	1	100	100	0	0
077	5	32	?	P	f	1320.52	NA	8	24	2	56	i	n	486.57	1	100	1000	0	0
077	5	33	?	P	f	336.19	NA	8	56	3	24	c	j	467.63	1	1000	1000	0	0
077	5	34	?	P	f	419.63	NA	7	24	2	56	i	n	787.14	1	1000	1000	0	0
077	5	35	?	P	f	686.58	NA	3	56	9	24	i	j	553.97	1	100	1000	0	0
077	5	36	?	P	f	2019.18	NA	4	56	9	24	i	j	586.29	1	100	100	0	0
077	5	37	?	P	f	1151.69	NA	2	24	7	56	c	n	719.83	1	100	100	0	0
077	5	38	?	P	f	269.41	NA	4	24	7	56	c	n	669.2	1	1000	1000	0	0
077	5	39	?	N	d	203.02	NA	7	56	3	24	c	j	1154.19	1	1000	100	0	0
077	5	40	?	N	d	652.87	NA	7	56	2	24	c	j	553.34	1	100	1000	0	0
077	5	41	?	N	d	85.6	NA	3	56	7	24	i	n	687.14	1	1000	100	0	0
077	5	42	?	N	d	369.44	NA	2	56	8	24	i	n	670.53	1	1000	100	0	0
077	5	43	?	N	d	269.19	NA	3	24	8	56	c	n	652.93	1	1000	100	0	0
077	5	44	?	N	d	69.23	NA	2	56	9	24	i	n	736.32	1	1000	100	0	0
077	5	45	?	N	d	1253.68	NA	7	56	4	24	c	j	786.59	1	100	100	0	0
077	5	46	?	P	f	936.67	NA	3	24	9	56	c	n	386.18	1	100	1000	0	0
077	5	47	?	P	f	250.48	NA	4	56	8	24	i	j	419.68	1	1000	1000	0	0
077	5	48	?	P	f	286.1	NA	9	24	2	56	i	j	236.49	0	1000	1000	0	0
077	5	49	?	N	d	219.21	NA	3	24	8	56	c	n	685.77	1	1000	1000	0	1
077	5	50	?	N	d	836.0	NA	9	24	2	56	i	j	503.21	1	100	1000	0	0
077	5	51	?	P	f	268.98	NA	9	56	3	24	c	j	1287.45	1	1000	1000	0	0
077	5	52	?	P	f	2219.47	NA	4	24	7	56	c	n	553.66	1	100	100	0	0
077	5	53	?	N	d	486.18	NA	3	56	8	24	i	n	703.56	1	100	100	0	0
077	5	54	?	N	d	602.78	NA	4	56	7	24	i	n	1788.59	1	100	1000	0	0
077	5	55	?	P	f	469.83	NA	3	24	9	56	c	n	536.63	1	100	100	0	0
077	5	56	?	P	f	1002.8	NA	2	24	9	56	c	n	1320.86	1	1000	1000	0	0
077	5	57	?	P	f	486.0	NA	9	24	4	56	i	n	653.44	1	1000	1000	0	0
077	5	58	?	P	f	3606.39	NA	7	24	2	56	i	n	487.19	1	100	1000	0	0
077	5	59	?	P	f	1086.77	NA	8	24	4	56	i	n	553.3	1	100	100	0	0
077	5	60	?	P	f	119.48	NA	2	56	7	24	i	j	853.81	1	1000	1000	0	0
077	5	61	?	N	d	620.12	NA	4	56	9	24	i	n	2254.82	1	100	100	0	0
077	5	62	?	N	d	1087.0	NA	7	56	2	24	c	j	1587.53	1	100	100	0	0
077	5	63	?	N	d	636.29	NA	4	24	8	56	c	n	752.84	1	100	1000	0	0
077	5	64	?	P	f	2554.91	NA	3	56	7	24	i	j	353.56	1	100	1000	0	0
077	5	65	?	P	f	1837.96	NA	4	56	9	24	i	j	1588.18	1	1000	100	0	0
077	6	1	?	P	f	869.79	NA	2	24	8	56	c	n	2972.23	1	1000	100	-1	0
077	6	2	?	N	d	1084.92	NA	9	24	4	56	i	j	969.84	1	1000	1000	0	0
077	6	3	?	N	d	268.8	NA	2	24	9	56	c	n	9045.38	1	1000	100	0	0
077	6	4	?	P	f	1286.83	NA	3	24	7	56	c	n	2636.07	1	1000	100	0	0
077	6	5	?	P	f	435.77	NA	7	56	2	24	c	j	503.12	1	100	100	0	0
077	6	6	?	P	f	552.79	NA	9	24	3	56	i	n	703.52	1	100	100	0	0
077	6	7	?	P	f	353.15	NA	2	56	8	24	i	j	520.13	1	1000	100	0	0
077	6	8	?	P	f	702.94	NA	4	24	9	56	c	n	470.16	1	100	100	0	0
077	6	9	?	N	d	653.1	NA	8	56	3	24	c	j	736.56	1	1000	100	0	0
077	6	10	?	N	d	436.27	NA	9	56	4	24	c	j	569.81	1	100	100	0	0
077	6	11	?	N	d	419.67	NA	8	56	2	24	c	j	519.57	1	100	1000	0	0
077	6	12	?	N	d	35.14	NA	7	24	3	56	i	n	786.69	0	1000	100	0	0
077	6	13	?	N	d	286.18	NA	4	56	9	24	i	n	653.98	1	1000	100	0	1
077	6	14	?	P	f	1336.75	NA	3	24	7	56	c	n	470.05	1	1000	100	0	0
077	6	15	?	P	f	519.94	NA	8	56	4	24	c	j	469.79	1	100	100	0	0
077	6	16	?	P	f	502.72	NA	8	24	3	56	i	n	603.32	1	100	1000	0	0
077	6	17	?	P	f	352.77	NA	4	56	8	24	i	j	786.38	1	1000	1000	0	0
077	6	18	?	N	d	1685.56	NA	7	56	2	24	c	j	569.66	1	100	1000	0	0
077	6	19	?	N	d	202.43	NA	4	56	8	24	i	n	720.19	1	1000	100	0	0
077	6	20	?	N	d	202.66	NA	8	56	3	24	c	j	453.58	1	1000	1000	0	0
077	6	21	?	N	d	1387.3	NA	4	24	9	56	c	n	551.14	1	100	100	0	0
077	6	22	?	P	f	569.73	NA	2	56	9	24	i	j	453.37	1	100	1000	0	0
077	6	23	?	P	f	52.03	NA	9	56	4	24	c	j	420.02	1	1000	1000	0	0
077	6	24	?	P	f	937.5	NA	3	56	9	24	i	j	553.56	1	100	1000	0	0
077	6	25	?	P	f	185.24	NA	8	56	2	24	c	j	586.53	1	1000	100	0	0
077	6	26	?	P	f	1037.08	NA	4	24	7	56	c	n	486.07	1	100	100	0	0
077	6	27	?	N	d	836.51	NA	9	56	2	24	c	j	953.33	1	100	1000	0	0
077	6	28	?	N	d	268.69	NA	9	24	3	56	i	j	1017.97	1	1000	100	0	0
077	6	29	?	N	d	419.27	NA	2	24	8	56	c	n	619.58	1	1000	1000	0	0
077	6	30	?	P	f	152.03	NA	4	56	9	24	i	j	920.32	1	1000	1000	0	0
077	6	31	?	P	f	753.13	NA	9	24	3	56	i	n	687.24	1	100	1000	0	0
077	6	32	?	N	d	1270.26	NA	2	56	7	24	i	n	719.99	1	1000	1000	0	0
077	6	33	?	N	d	853.46	NA	8	24	3	56	i	j	1420.4	1	100	100	0	0
077	6	34	?	P	f	252.34	NA	7	24	4	56	i	n	803.34	1	1000	100	0	0
077	6	35	?	P	f	350.7	NA	7	56	2	24	c	j	586.51	1	1000	1000	0	0
077	6	36	?	N	d	2304.66	NA	7	24	3	56	i	j	935.99	1	100	100	0	0
077	6	37	?	N	d	785.71	NA	7	24	2	56	i	j	837.11	1	100	100	0	0
077	6	38	?	N	d	486.64	NA	7	56	4	24	c	j	1070.1	1	1000	100	0	0
077	6	39	?	N	d	752.56	NA	2	24	8	56	c	n	585.95	1	100	1000	0	0
077	6	40	?	P	f	152.7	NA	4	56	9	24	i	j	1003.67	1	1000	100	0	0
077	6	41	?	P	f	753.06	NA	2	56	7	24	i	j	436.57	1	100	1000	0	0
077	6	42	?	P	f	550.26	NA	9	24	4	56	i	n	719.28	1	1000	1000	0	0
077	6	43	?	N	d	752.95	NA	7	56	3	24	c	j	652.83	1	100	100	0	0
077	6	44	?	N	d	603.35	NA	8	24	4	56	i	j	1604.62	1	100	100	0	0
077	6	45	?	N	d	2.52	NA	3	24	8	56	c	n	1471.29	1	1000	1000	0	0
077	6	46	?	P	f	519.91	NA	7	56	4	24	c	j	419.86	1	1000	1000	0	0
077	6	47	?	P	f	902.9	NA	9	24	2	56	i	j	1053.63	0	100	100	0	0
077	6	48	?	P	f	1588.57	NA	4	24	8	56	c	n	670.26	1	100	100	0	1
077	6	49	?	P	f	402.98	NA	2	56	7	24	i	j	653.72	1	1000	1000	0	0
077	6	50	?	N	d	652.96	NA	3	24	9	56	c	n	854.2	1	1000	1000	0	0
077	6	51	?	N	d	803.05	NA	4	56	7	24	i	n	986.98	1	100	100	0	0
077	6	52	?	N	d	703.28	NA	3	56	7	24	i	n	586.43	1	100	1000	0	0
077	6	53	?	N	d	1654.16	NA	2	24	7	56	c	n	719.9	1	1000	100	0	0
077	6	54	?	N	d	685.99	NA	3	56	9	24	i	n	718.36	1	100	100	0	0
077	6	55	?	N	d	286.22	NA	4	56	9	24	i	n	736.34	1	1000	1000	0	0
077	6	56	?	N	d	636.42	NA	3	24	7	56	c	n	553.72	1	100	1000	0	0
077	6	57	?	N	d	252.47	NA	2	56	8	24	i	n	620.02	1	1000	100	0	0
077	6	58	?	N	d	669.47	NA	9	24	3	56	i	j	819.9	1	100	1000	0	0
077	6	59	?	P	f	1854.47	NA	2	24	8	56	c	n	401.25	1	100	1000	0	0
077	6	60	?	P	f	336.09	NA	3	24	9	56	c	n	452.08	1	1000	1000	0	0
077	6	61	?	P	f	686.65	NA	9	24	2	56	i	n	584.4	1	100	1000	0	0
077	6	62	?	P	f	452.84	NA	4	24	8	56	c	n	403.03	1	100	1000	0	0
077	6	63	?	P	f	619.71	NA	7	56	3	24	c	j	653.89	1	100	1000	0	0
077	6	64	?	N	d	219.07	NA	2	56	7	24	i	n	619.6	1	1000	1000	0	0
077	6	65	?	N	d	219.53	NA	7	56	3	24	c	j	787.23	1	1000	100	0	0
