subj	block	trial	task_cue	task	choice_resp	choiceRT	choice_acc	topnum	topsize	botnum	botsize	cong	task_resp	taskRT	task_acc	RSI	CSI	altRep	E1
079	1	1	?	P	d	518.52	NA	4	56	8	24	i	j	785.05	1	1000	1000	-1	0
079	1	2	?	N	f	1486.85	NA	3	56	7	24	i	n	902.68	1	100	1000	0	0
079	1	3	?	N	f	2888.39	NA	9	56	4	24	c	j	552.76	1	100	1000	0	0
079	1	4	?	P	d	1152.18	NA	9	56	2	24	c	j	1019.75	1	100	1000	0	0
079	1	5	?	P	d	2069.83	NA	7	24	3	56	i	n	1420.2	1	100	1000	0	0
079	1	6	?	N	f	952.47	NA	4	24	9	56	c	n	800.15	1	100	100	0	0
079	1	7	?	N	f	1569.24	NA	3	24	8	56	c	n	736.25	1	100	1000	0	0
079	1	8	?	P	d	1086.64	NA	2	56	8	24	i	j	1119.66	1	1000	100	0	0
079	1	9	?	P	d	535.73	NA	7	56	3	24	c	j	735.67	1	1000	100	0	0
079	1	10	?	N	f	435.5	NA	9	24	4	56	i	j	1236.33	1	1000	100	0	0
079	1	11	?	P	d	2638.14	NA	3	56	8	24	i	j	1853.84	1	100	1000	0	0
079	1	12	?	N	f	685.89	NA	2	24	8	56	c	n	1219.74	1	100	1000	0	0
079	1	13	?	N	f	2304.17	NA	3	56	8	24	i	n	1136.56	1	100	100	0	0
079	1	14	?	N	f	786.17	NA	8	24	2	56	i	j	936.23	1	100	100	0	0
079	1	15	?	P	d	2637.93	NA	9	24	4	56	i	n	1186.11	1	1000	100	0	0
079	1	16	?	P	d	936.13	NA	3	24	7	56	c	n	1151.9	1	100	100	0	0
079	1	17	?	N	f	468.9	NA	7	56	2	24	c	j	885.96	1	1000	100	0	0
079	1	18	?	P	d	985.32	NA	4	56	8	24	i	j	1603.62	1	1000	1000	0	0
079	1	19	?	N	f	468.38	NA	9	24	2	56	i	j	2121.7	1	1000	1000	0	0
079	1	20	?	P	d	735.49	NA	8	56	3	24	c	j	1686.72	1	100	100	0	0
079	1	21	?	P	d	452.37	NA	8	56	2	24	c	j	769.23	1	1000	1000	0	0
079	1	22	?	N	f	2237.56	NA	7	24	4	56	i	j	869.19	1	100	1000	0	0
079	1	23	?	N	f	451.61	NA	7	24	3	56	i	j	1236.49	1	1000	1000	0	0
079	1	24	?	N	f	1536.86	NA	2	56	9	24	i	n	1339.27	1	100	100	0	0
079	1	25	?	P	d	585.38	NA	7	56	3	24	c	j	1052.87	1	100	1000	0	0
079	1	26	?	P	d	1652.83	NA	2	24	8	56	c	n	1586.65	1	100	1000	0	0
079	1	27	?	N	f	84.02	NA	3	24	7	56	c	n	1703.42	1	1000	1000	0	0
079	1	28	?	N	f	719.28	NA	9	24	2	56	i	j	869.25	1	100	100	0	0
079	1	29	?	N	f	2054.06	NA	7	56	4	24	c	j	1703.55	1	100	100	0	0
079	1	30	?	P	d	2904.95	NA	8	56	2	24	c	j	1836.18	1	1000	1000	0	0
079	1	31	?	P	d	1854.23	NA	4	24	9	56	c	n	1536.87	1	100	100	0	0
079	1	32	?	P	d	4039.48	NA	3	56	9	24	i	j	1386.61	1	100	100	0	0
079	1	33	?	N	f	1302.9	NA	2	56	7	24	i	n	736.02	1	1000	1000	0	0
079	1	34	?	P	d	535.75	NA	3	24	7	56	c	n	836.31	1	1000	100	0	0
079	1	35	?	N	f	1153.08	NA	4	56	9	24	i	n	2437.97	1	100	1000	0	0
079	1	36	?	P	d	551.21	NA	8	56	2	24	c	j	685.64	1	1000	1000	0	0
079	1	37	?	P	d	469.35	NA	7	24	3	56	i	n	634.42	1	1000	100	0	0
079	1	38	?	N	f	969.67	NA	2	56	7	24	i	n	1036.29	1	100	100	0	0
079	1	39	?	N	f	684.98	NA	4	56	7	24	i	n	903.06	1	100	100	0	0
079	1	40	?	P	d	185.35	NA	7	24	3	56	i	n	2287.69	1	1000	1000	0	0
079	1	41	?	N	f	1168.24	NA	4	24	8	56	c	n	1887.09	1	100	100	0	0
079	1	42	?	P	d	619.13	NA	3	24	7	56	c	n	1821.11	1	1000	1000	0	0
079	1	43	?	N	f	1687.99	NA	8	24	4	56	i	j	1620.32	1	100	100	0	0
079	1	44	?	N	f	2787.88	NA	8	56	3	24	c	j	919.55	1	100	100	0	0
079	1	45	?	P	d	602.53	NA	2	24	7	56	c	n	1236.68	1	1000	100	0	0
079	1	46	?	P	d	835.67	NA	8	24	4	56	i	n	4006.58	1	1000	1000	0	0
079	1	47	?	N	f	485.34	NA	8	56	2	24	c	j	836.04	1	100	100	0	0
079	1	48	?	N	f	2387.96	NA	9	24	3	56	i	j	3038.38	1	1000	1000	0	0
079	1	49	?	P	d	886.18	NA	4	24	7	56	c	n	1069.7	1	1000	100	0	0
079	1	50	?	P	d	251.31	NA	3	24	9	56	c	n	836.28	1	1000	100	0	0
079	1	51	?	P	d	819.39	NA	8	56	4	24	c	j	1170.26	1	100	1000	0	0
079	1	52	?	N	f	552.4	NA	3	56	9	24	i	n	1069.51	1	1000	1000	0	0
079	1	53	?	N	f	1687.26	NA	9	56	4	24	c	j	1253.18	1	1000	100	0	0
079	1	54	?	P	d	2454.39	NA	3	56	9	24	i	j	1552.92	1	100	1000	0	0
079	1	55	?	N	f	685.61	NA	8	56	4	24	c	j	1420.07	1	1000	1000	0	0
079	1	56	?	P	d	1269.91	NA	3	24	8	56	c	n	1720.33	1	1000	1000	0	0
079	1	57	?	P	d	518.94	NA	9	56	4	24	c	j	2420.64	1	1000	100	0	0
079	1	58	?	N	f	769.4	NA	9	24	3	56	i	j	1403.9	1	1000	100	0	0
079	1	59	?	N	f	1603.27	NA	4	56	7	24	i	n	1653.56	1	100	1000	0	0
079	1	60	?	P	d	636.15	NA	7	24	2	56	i	n	2253.63	1	1000	100	0	0
079	1	61	?	P	d	786.16	NA	4	56	7	24	i	j	3321.93	1	1000	100	0	0
079	1	62	?	N	f	1953.82	NA	3	24	9	56	c	n	1502.32	1	100	1000	0	0
079	1	63	?	P	d	2170.86	NA	9	24	2	56	i	n	1420.09	1	1000	100	0	0
079	1	64	?	P	d	2754.91	NA	4	56	9	24	i	j	1353.32	1	100	1000	0	0
079	1	65	?	N	f	485.64	NA	2	24	9	56	c	n	1403.6	1	1000	1000	0	0
079	2	1	?	P	d	3605.74	NA	9	56	3	24	c	j	1269.87	1	1000	1000	-1	0
079	2	2	?	N	f	1053.1	NA	2	24	8	56	c	n	1520.44	1	100	100	0	0
079	2	3	?	P	d	1036.16	NA	3	56	7	24	i	j	836.03	1	1000	100	0	0
079	2	4	?	N	f	569.43	NA	2	56	7	24	i	n	1336.75	1	100	100	0	0
079	2	5	?	N	f	1853.92	NA	4	24	7	56	c	n	819.4	1	100	1000	0	0
079	2	6	?	N	f	952.69	NA	8	56	3	24	c	j	651.39	1	100	100	0	0
079	2	7	?	P	d	385.74	NA	2	56	7	24	i	j	968.95	1	1000	100	0	0
079	2	8	?	P	d	185.68	NA	4	24	9	56	c	n	1135.28	1	1000	100	0	0
079	2	9	?	N	f	1536.91	NA	3	24	8	56	c	n	886.18	1	100	100	0	0
079	2	10	?	P	d	636.0	NA	7	24	2	56	i	n	652.7	1	1000	1000	0	0
079	2	11	?	P	d	468.95	NA	7	24	4	56	i	n	586.15	1	1000	1000	0	0
079	2	12	?	N	f	734.93	NA	3	56	8	24	i	n	1818.97	1	1000	100	0	0
079	2	13	?	N	f	1303.33	NA	2	56	8	24	i	n	969.6	1	100	1000	0	0
079	2	14	?	N	f	635.92	NA	4	56	7	24	i	n	2554.56	1	1000	100	0	0
079	2	15	?	P	d	819.26	NA	3	56	7	24	i	j	1987.16	1	100	100	0	0
079	2	16	?	N	f	1068.37	NA	2	24	8	56	c	n	1353.43	1	1000	1000	0	0
079	2	17	?	P	d	569.03	NA	7	56	4	24	c	j	1286.35	1	1000	1000	0	0
079	2	18	?	P	d	1353.38	NA	3	24	9	56	c	n	869.53	1	100	1000	0	0
079	2	19	?	N	f	1085.88	NA	2	24	8	56	c	n	1468.74	1	1000	100	0	0
079	2	20	?	P	d	1520.41	NA	7	24	4	56	i	n	2421.41	1	100	100	0	0
079	2	21	?	P	d	1837.05	NA	8	24	3	56	i	n	1803.49	1	100	1000	0	0
079	2	22	?	N	f	1303.12	NA	2	56	9	24	i	j	2103.7	0	100	100	0	0
079	2	23	?	P	d	3989.59	NA	7	24	4	56	i	n	919.16	1	100	100	0	1
079	2	24	?	N	f	1887.35	NA	8	56	3	24	c	j	818.53	1	100	1000	0	0
079	2	25	?	N	f	1118.84	NA	7	24	4	56	i	j	1603.56	1	100	100	0	0
079	2	26	?	N	f	619.09	NA	8	56	2	24	c	j	686.19	1	1000	1000	0	0
079	2	27	?	P	d	535.72	NA	3	56	9	24	i	j	1468.51	1	1000	100	0	0
079	2	28	?	N	f	1653.69	NA	8	24	2	56	i	j	1118.94	1	100	100	0	0
079	2	29	?	P	d	501.68	NA	7	56	3	24	c	j	1370.08	1	1000	100	0	0
079	2	30	?	P	d	3237.51	NA	9	24	2	56	i	n	1086.48	1	100	1000	0	0
079	2	31	?	N	f	568.67	NA	3	24	9	56	c	n	1368.97	1	1000	1000	0	0
079	2	32	?	N	f	1970.52	NA	2	24	9	56	c	n	1236.79	1	100	100	0	0
079	2	33	?	P	d	919.72	NA	4	56	9	24	i	j	734.62	1	100	1000	0	0
079	2	34	?	P	d	668.25	NA	3	56	9	24	i	j	1887.34	1	1000	100	0	0
079	2	35	?	N	f	919.19	NA	8	24	4	56	i	j	1470.06	1	100	100	0	0
079	2	36	?	P	d	1820.73	NA	9	56	2	24	c	j	902.6	1	100	100	0	0
079	2	37	?	N	f	669.15	NA	3	56	7	24	i	n	986.18	1	1000	1000	0	0
079	2	38	?	N	f	969.67	NA	8	24	4	56	i	j	2120.72	1	1000	1000	0	0
079	2	39	?	P	d	519.04	NA	9	56	2	24	c	j	1102.85	1	1000	100	0	0
079	2	40	?	P	d	2237.43	NA	4	24	9	56	c	n	786.18	1	100	1000	0	0
079	2	41	?	N	f	2204.17	NA	3	24	7	56	c	n	1202.23	1	1000	100	0	0
079	2	42	?	N	f	602.43	NA	8	24	4	56	i	j	952.09	1	1000	1000	0	0
079	2	43	?	P	d	919.37	NA	2	56	9	24	i	j	1737.11	1	100	1000	0	0
079	2	44	?	N	f	919.23	NA	7	56	3	24	c	j	1820.63	1	1000	1000	0	0
079	2	45	?	P	d	1970.53	NA	8	56	4	24	c	j	1052.75	1	100	1000	0	0
079	2	46	?	P	d	752.55	NA	2	24	9	56	c	n	1535.17	1	1000	1000	0	0
079	2	47	?	N	f	701.58	NA	4	56	9	24	i	n	3188.49	1	1000	100	0	0
079	2	48	?	N	f	1069.18	NA	2	24	9	56	c	n	1236.67	1	1000	100	0	0
079	2	49	?	P	d	1753.38	NA	7	56	3	24	c	j	602.42	1	100	1000	0	0
079	2	50	?	N	f	519.4	NA	8	24	2	56	i	j	869.28	1	1000	1000	0	0
079	2	51	?	P	d	952.69	NA	7	24	3	56	i	n	1553.42	1	1000	100	0	0
079	2	52	?	N	f	1420.18	NA	2	56	7	24	i	n	4523.6	1	1000	1000	0	0
079	2	53	?	P	d	2738.14	NA	7	56	4	24	c	j	1687.1	1	100	100	0	0
079	2	54	?	P	d	1936.74	NA	3	56	8	24	i	j	702.48	1	100	1000	0	0
079	2	55	?	P	d	819.13	NA	8	56	4	24	c	j	1085.36	1	1000	100	0	0
079	2	56	?	N	f	486.32	NA	9	56	2	24	c	j	2554.6	1	1000	100	0	0
079	2	57	?	P	d	1437.23	NA	9	56	4	24	c	j	1369.81	1	100	1000	0	0
079	2	58	?	N	f	1870.94	NA	8	56	2	24	c	j	886.55	1	1000	1000	0	0
079	2	59	?	N	f	2771.64	NA	3	24	7	56	c	n	1253.8	1	100	1000	0	0
079	2	60	?	P	d	1620.46	NA	9	24	4	56	i	j	1119.89	0	100	1000	0	0
079	2	61	?	N	f	1470.22	NA	2	24	7	56	c	n	2888.1	1	100	100	0	1
079	2	62	?	N	f	2888.25	NA	7	56	4	24	c	j	685.42	1	100	100	0	0
079	2	63	?	N	f	1152.98	NA	7	24	3	56	i	j	1270.07	1	100	1000	0	0
079	2	64	?	P	d	418.73	NA	2	56	9	24	i	j	685.91	1	1000	1000	0	0
079	2	65	?	N	f	384.95	NA	4	24	9	56	c	n	1152.78	1	1000	1000	0	0
079	3	1	?	P	d	3922.66	NA	9	24	2	56	i	n	1503.47	1	1000	100	-1	0
079	3	2	?	N	f	469.14	NA	8	56	3	24	c	j	1353.16	1	1000	1000	0	0
079	3	3	?	N	f	1219.82	NA	2	56	7	24	i	n	1636.15	1	1000	100	0	0
079	3	4	?	P	d	2721.4	NA	8	24	4	56	i	n	1053.53	1	100	100	0	0
079	3	5	?	N	f	718.3	NA	8	56	3	24	c	j	752.53	1	1000	1000	0	0
079	3	6	?	N	f	485.84	NA	9	24	4	56	i	j	852.35	1	1000	1000	0	0
079	3	7	?	P	d	1570.37	NA	7	24	2	56	i	n	1536.48	1	100	1000	0	0
079	3	8	?	N	f	1619.7	NA	3	24	8	56	c	n	1253.45	1	100	1000	0	0
079	3	9	?	P	d	485.61	NA	7	24	2	56	i	n	1286.46	1	1000	1000	0	0
079	3	10	?	P	d	1003.62	NA	9	56	3	24	c	j	919.52	1	100	100	0	0
079	3	11	?	P	d	1086.34	NA	4	56	7	24	i	j	651.2	1	100	1000	0	0
079	3	12	?	N	f	1369.26	NA	7	56	2	24	c	j	919.34	1	100	100	0	0
079	3	13	?	P	d	368.89	NA	8	56	3	24	c	j	1086.16	1	1000	100	0	0
079	3	14	?	N	f	986.73	NA	9	24	4	56	i	j	2069.9	1	100	100	0	0
079	3	15	?	P	d	702.69	NA	3	56	7	24	i	j	1053.32	1	100	100	0	0
079	3	16	?	P	d	1320.85	NA	2	56	7	24	i	j	502.76	1	100	1000	0	0
079	3	17	?	P	d	1002.97	NA	4	24	7	56	c	n	969.49	1	100	1000	0	0
079	3	18	?	N	f	986.63	NA	2	56	8	24	i	n	1202.1	1	100	100	0	0
079	3	19	?	N	f	468.27	NA	4	56	7	24	i	n	784.76	1	1000	1000	0	0
079	3	20	?	P	d	1220.02	NA	8	24	3	56	i	n	3972.61	1	100	100	0	0
079	3	21	?	N	f	1.78	NA	2	56	8	24	i	n	1203.09	1	1000	100	0	0
079	3	22	?	P	d	618.12	NA	7	56	4	24	c	j	635.9	1	100	1000	0	0
079	3	23	?	P	d	1670.28	NA	2	24	9	56	c	n	2487.36	1	100	100	0	0
079	3	24	?	N	f	602.61	NA	9	24	3	56	i	j	1570.07	1	1000	1000	0	0
079	3	25	?	N	f	1169.77	NA	9	56	4	24	c	j	969.41	1	100	1000	0	0
079	3	26	?	N	f	2654.77	NA	3	24	9	56	c	n	3723.42	1	100	100	0	0
079	3	27	?	P	d	535.77	NA	9	24	4	56	i	n	2254.27	1	100	1000	0	0
079	3	28	?	P	d	535.95	NA	3	24	8	56	c	n	536.08	1	100	100	0	0
079	3	29	?	N	f	702.06	NA	8	24	4	56	i	n	635.91	0	100	100	0	0
079	3	30	?	N	f	3755.57	NA	8	56	2	24	c	j	552.68	1	100	100	0	1
079	3	31	?	P	d	1937.09	NA	9	24	3	56	i	n	786.03	1	1000	1000	0	0
079	3	32	?	N	f	385.66	NA	2	56	8	24	i	n	686.16	1	1000	100	0	0
079	3	33	?	P	d	502.33	NA	3	24	8	56	c	n	1186.32	1	1000	1000	0	0
079	3	34	?	P	d	451.94	NA	7	24	2	56	i	n	885.95	1	1000	100	0	0
079	3	35	?	N	f	451.49	NA	9	24	4	56	i	j	835.46	1	1000	100	0	0
079	3	36	?	N	f	902.46	NA	8	56	3	24	c	j	1319.69	1	100	1000	0	0
079	3	37	?	N	f	1085.45	NA	4	56	9	24	i	n	819.75	1	100	100	0	0
079	3	38	?	N	f	652.11	NA	9	56	2	24	c	j	1352.94	1	1000	1000	0	0
079	3	39	?	P	d	419.15	NA	7	56	3	24	c	j	1036.26	1	1000	100	0	0
079	3	40	?	P	d	1186.53	NA	7	24	2	56	i	n	1070.02	1	100	1000	0	0
079	3	41	?	N	f	418.92	NA	4	24	7	56	c	n	1586.69	1	1000	1000	0	0
079	3	42	?	P	d	1369.74	NA	7	24	3	56	i	n	1203.33	1	100	1000	0	0
079	3	43	?	P	d	1003.1	NA	7	24	2	56	i	n	1620.43	1	1000	1000	0	0
079	3	44	?	N	f	1202.07	NA	7	24	4	56	i	j	702.1	1	100	1000	0	0
079	3	45	?	N	f	685.18	NA	8	24	2	56	i	j	1219.94	1	1000	1000	0	0
079	3	46	?	N	f	469.44	NA	9	56	4	24	c	j	819.58	1	1000	1000	0	0
079	3	47	?	P	d	1720.41	NA	3	56	8	24	i	j	986.07	1	100	1000	0	0
079	3	48	?	P	d	752.44	NA	4	24	9	56	c	n	2404.45	1	1000	1000	0	0
079	3	49	?	N	f	835.97	NA	2	24	8	56	c	n	1803.46	1	1000	100	0	0
079	3	50	?	N	f	1236.81	NA	7	24	4	56	i	j	1036.27	1	100	100	0	0
079	3	51	?	N	f	651.39	NA	2	24	7	56	c	n	735.86	1	1000	100	0	0
079	3	52	?	P	d	368.99	NA	3	24	7	56	c	n	1135.69	1	1000	100	0	0
079	3	53	?	P	d	368.92	NA	2	56	9	24	i	j	785.66	1	1000	100	0	0
079	3	54	?	P	d	652.75	NA	3	24	9	56	c	n	636.03	1	1000	1000	0	0
079	3	55	?	N	f	418.58	NA	9	24	2	56	i	j	684.45	1	1000	100	0	0
079	3	56	?	P	d	452.5	NA	9	56	4	24	c	j	935.55	1	1000	100	0	0
079	3	57	?	N	f	535.74	NA	9	24	3	56	i	j	803.1	1	1000	100	0	0
079	3	58	?	P	d	535.8	NA	2	24	7	56	c	n	1620.23	1	1000	100	0	0
079	3	59	?	N	f	1704.13	NA	8	56	4	24	c	j	802.76	1	1000	100	0	0
079	3	60	?	P	d	1820.29	NA	8	56	2	24	c	j	668.99	1	100	1000	0	0
079	3	61	?	P	d	1369.95	NA	9	56	3	24	c	j	886.05	1	100	100	0	0
079	3	62	?	N	f	602.74	NA	9	24	2	56	i	j	1553.33	1	1000	1000	0	0
079	3	63	?	N	f	1086.12	NA	4	24	7	56	c	n	736.48	1	100	1000	0	0
079	3	64	?	P	d	1353.24	NA	2	24	8	56	c	n	1153.05	1	100	1000	0	0
079	3	65	?	P	d	1220.04	NA	3	24	9	56	c	n	1519.66	1	100	100	0	0
079	4	1	?	P	d	1236.55	NA	4	24	9	56	c	n	1219.33	1	100	1000	-1	0
079	4	2	?	N	f	685.99	NA	2	56	7	24	i	n	1903.55	1	1000	1000	0	0
079	4	3	?	N	f	2120.97	NA	8	24	3	56	i	j	3188.87	1	100	100	0	0
079	4	4	?	P	d	302.23	NA	2	56	8	24	i	j	1470.1	1	1000	100	0	0
079	4	5	?	P	d	1286.84	NA	4	56	7	24	i	j	1353.27	1	100	100	0	0
079	4	6	?	N	f	736.24	NA	7	56	2	24	c	j	519.11	1	100	1000	0	0
079	4	7	?	N	f	1068.62	NA	4	24	8	56	c	n	769.29	1	100	1000	0	0
079	4	8	?	P	d	986.04	NA	8	24	3	56	i	n	501.72	1	100	1000	0	0
079	4	9	?	P	d	552.56	NA	9	56	4	24	c	j	535.69	1	1000	1000	0	0
079	4	10	?	P	d	2087.43	NA	2	24	8	56	c	n	869.55	1	100	100	0	0
079	4	11	?	N	f	1153.18	NA	3	24	9	56	c	n	3122.44	1	100	1000	0	0
079	4	12	?	N	f	385.56	NA	7	24	4	56	i	j	869.51	1	1000	100	0	0
079	4	13	?	N	f	769.74	NA	9	56	3	24	c	j	618.86	1	1000	1000	0	0
079	4	14	?	N	f	1003.14	NA	9	56	4	24	c	j	852.31	1	1000	100	0	0
079	4	15	?	P	d	385.82	NA	3	24	7	56	c	n	836.06	1	1000	100	0	0
079	4	16	?	P	d	702.4	NA	2	56	7	24	i	j	552.45	1	1000	1000	0	0
079	4	17	?	N	f	1837.59	NA	8	56	3	24	c	j	502.04	1	100	1000	0	0
079	4	18	?	N	f	2771.64	NA	4	24	7	56	c	n	1870.46	1	100	1000	0	0
079	4	19	?	P	d	885.79	NA	7	24	3	56	i	n	1353.18	1	1000	100	0	0
079	4	20	?	P	d	1370.29	NA	4	56	9	24	i	j	535.79	1	100	100	0	0
079	4	21	?	P	d	1103.11	NA	9	56	2	24	c	j	569.03	1	100	1000	0	0
079	4	22	?	N	f	402.27	NA	3	24	9	56	c	n	2788.18	1	1000	100	0	0
079	4	23	?	N	f	752.25	NA	4	56	7	24	i	n	836.7	1	100	100	0	0
079	4	24	?	P	d	502.27	NA	8	56	2	24	c	j	1052.92	1	1000	1000	0	0
079	4	25	?	P	d	569.11	NA	9	24	4	56	i	n	1186.04	1	1000	100	0	0
079	4	26	?	P	d	1136.36	NA	3	24	7	56	c	n	769.42	1	100	1000	0	0
079	4	27	?	N	f	335.16	NA	2	24	9	56	c	n	1253.22	1	1000	1000	0	0
079	4	28	?	N	f	952.95	NA	3	24	8	56	c	n	902.63	1	1000	1000	0	0
079	4	29	?	P	d	1569.5	NA	4	24	8	56	c	n	2738.66	1	100	100	0	0
079	4	30	?	N	f	2070.65	NA	3	24	9	56	c	n	669.01	1	100	100	0	0
079	4	31	?	P	d	1570.61	NA	7	24	2	56	i	n	569.13	1	100	1000	0	0
079	4	32	?	N	f	1019.81	NA	3	56	9	24	i	n	1086.47	1	100	100	0	0
079	4	33	?	P	d	1402.26	NA	8	24	2	56	i	n	1570.59	1	100	100	0	0
079	4	34	?	N	f	369.25	NA	4	56	9	24	i	n	552.2	1	1000	1000	0	0
079	4	35	?	N	f	669.38	NA	9	56	3	24	c	j	919.68	1	1000	100	0	0
079	4	36	?	P	d	2387.46	NA	2	56	7	24	i	j	969.37	1	100	100	0	0
079	4	37	?	N	f	1704.01	NA	8	24	4	56	i	j	1103.14	1	100	1000	0	0
079	4	38	?	P	d	1269.82	NA	8	24	3	56	i	n	1036.36	1	100	1000	0	0
079	4	39	?	P	d	786.78	NA	2	24	8	56	c	n	1203.2	1	1000	1000	0	0
079	4	40	?	P	d	652.72	NA	4	24	7	56	c	n	652.82	1	1000	1000	0	0
079	4	41	?	N	f	1336.67	NA	8	24	2	56	i	j	1086.46	1	1000	1000	0	0
079	4	42	?	N	f	652.15	NA	9	24	4	56	i	j	1837.26	1	1000	100	0	0
079	4	43	?	N	f	2638.4	NA	9	24	2	56	i	j	552.37	1	1000	1000	0	0
079	4	44	?	P	d	3072.01	NA	9	24	4	56	i	n	1303.74	1	100	1000	0	0
079	4	45	?	N	f	637.03	NA	3	56	9	24	i	n	1520.11	1	1000	1000	0	0
079	4	46	?	N	f	1003.11	NA	9	56	2	24	c	j	652.09	1	100	100	0	0
079	4	47	?	P	d	819.55	NA	3	56	7	24	i	j	1086.57	1	100	1000	0	0
079	4	48	?	N	f	719.23	NA	7	24	2	56	i	j	1870.61	1	1000	100	0	0
079	4	49	?	P	d	2171.02	NA	9	56	3	24	c	j	619.15	1	100	1000	0	0
079	4	50	?	N	f	2721.45	NA	7	56	2	24	c	j	2871.93	1	1000	1000	0	0
079	4	51	?	P	d	1203.28	NA	9	56	4	24	c	j	1820.16	1	1000	100	0	0
079	4	52	?	P	d	1653.65	NA	2	56	7	24	i	j	2337.45	1	100	1000	0	0
079	4	53	?	N	f	2587.59	NA	8	56	3	24	c	j	1219.37	1	100	100	0	0
079	4	54	?	N	f	1019.01	NA	2	24	9	56	c	n	1402.7	1	1000	100	0	0
079	4	55	?	N	f	1319.95	NA	9	56	3	24	c	j	1069.43	1	100	100	0	0
079	4	56	?	P	d	953.36	NA	9	56	2	24	c	j	2238.14	1	100	100	0	0
079	4	57	?	P	d	1219.88	NA	9	24	4	56	i	n	1353.43	1	100	100	0	0
079	4	58	?	N	f	1302.98	NA	3	24	9	56	c	n	852.47	1	100	100	0	0
079	4	59	?	P	d	252.02	NA	8	24	4	56	i	n	1853.7	1	1000	100	0	0
079	4	60	?	P	d	1236.6	NA	2	24	7	56	c	n	1887.37	1	1000	100	0	0
079	4	61	?	N	f	952.9	NA	7	24	4	56	i	j	2653.21	1	100	1000	0	0
079	4	62	?	N	f	1403.41	NA	9	56	3	24	c	j	2070.74	1	1000	100	0	0
079	4	63	?	N	f	1386.75	NA	4	56	8	24	i	n	1970.58	1	1000	1000	0	0
079	4	64	?	P	d	2070.57	NA	7	24	3	56	i	n	1319.79	1	1000	100	0	0
079	4	65	?	P	d	585.86	NA	2	56	7	24	i	j	1303.1	1	1000	1000	0	0
079	5	1	?	N	f	1168.81	NA	9	24	4	56	i	j	1570.05	1	1000	1000	-1	0
079	5	2	?	P	d	986.4	NA	8	24	2	56	i	n	2170.54	1	1000	1000	0	0
079	5	3	?	N	f	2087.13	NA	4	24	7	56	c	n	1102.98	1	100	100	0	0
079	5	4	?	N	f	435.75	NA	9	24	3	56	i	j	668.85	1	1000	1000	0	0
079	5	5	?	P	d	434.81	NA	9	24	4	56	i	n	836.06	1	1000	100	0	0
079	5	6	?	N	f	1436.42	NA	8	24	2	56	i	j	3171.95	1	100	100	0	0
079	5	7	?	P	d	1136.29	NA	8	24	4	56	i	n	569.42	1	100	1000	0	0
079	5	8	?	P	d	402.21	NA	3	56	9	24	i	j	519.31	1	1000	1000	0	0
079	5	9	?	P	d	1119.65	NA	8	56	4	24	c	j	618.22	1	1000	1000	0	0
079	5	10	?	N	f	485.65	NA	2	24	7	56	c	n	4389.41	1	1000	100	0	0
079	5	11	?	N	f	1637.02	NA	4	56	9	24	i	n	952.28	1	100	100	0	0
079	5	12	?	N	f	1202.59	NA	3	24	7	56	c	n	602.03	1	100	1000	0	0
079	5	13	?	P	d	452.45	NA	4	24	9	56	c	n	1086.35	1	1000	1000	0	0
079	5	14	?	P	d	1219.9	NA	3	56	8	24	i	j	2788.41	1	100	100	0	0
079	5	15	?	N	f	785.23	NA	7	24	2	56	i	j	919.24	1	1000	1000	0	0
079	5	16	?	N	f	1253.29	NA	3	56	8	24	i	n	1436.47	1	100	1000	0	0
079	5	17	?	N	f	786.25	NA	7	24	2	56	i	j	819.09	1	1000	100	0	0
079	5	18	?	P	d	2104.13	NA	8	24	3	56	i	n	802.59	1	100	100	0	0
079	5	19	?	N	f	936.68	NA	7	56	2	24	c	j	485.61	1	100	1000	0	0
079	5	20	?	P	d	384.77	NA	9	24	4	56	i	n	1218.33	1	1000	1000	0	0
079	5	21	?	P	d	1119.79	NA	3	24	9	56	c	n	535.52	1	100	1000	0	0
079	5	22	?	P	d	1086.44	NA	9	24	4	56	i	n	1069.79	1	1000	100	0	0
079	5	23	?	N	f	1553.36	NA	7	56	3	24	c	j	1601.89	1	100	1000	0	0
079	5	24	?	P	d	2570.86	NA	7	24	2	56	i	n	1586.76	1	100	1000	0	0
079	5	25	?	N	f	1186.53	NA	9	24	4	56	i	j	1503.68	1	100	100	0	0
079	5	26	?	P	d	1670.62	NA	7	24	2	56	i	n	518.91	1	100	100	0	0
079	5	27	?	N	f	368.26	NA	9	56	4	24	c	j	1269.82	1	1000	100	0	0
079	5	28	?	N	f	1971.49	NA	7	56	2	24	c	j	635.86	1	100	100	0	0
079	5	29	?	N	f	1753.52	NA	7	56	3	24	c	j	952.76	1	100	100	0	0
079	5	30	?	P	d	502.57	NA	9	24	2	56	i	n	535.46	1	1000	1000	0	0
079	5	31	?	P	d	2938.25	NA	4	24	7	56	c	n	1136.58	1	100	1000	0	0
079	5	32	?	N	f	619.11	NA	9	56	3	24	c	j	1086.36	1	1000	1000	0	0
079	5	33	?	P	d	1235.48	NA	7	56	2	24	c	j	1403.15	1	100	100	0	0
079	5	34	?	P	d	635.73	NA	3	56	7	24	i	j	551.6	1	1000	1000	0	0
079	5	35	?	N	f	669.57	NA	4	56	9	24	i	n	1219.7	1	1000	1000	0	0
079	5	36	?	N	f	1486.48	NA	7	24	2	56	i	j	1437.71	1	100	1000	0	0
079	5	37	?	P	d	669.54	NA	9	24	4	56	i	n	1403.11	1	1000	100	0	0
079	5	38	?	N	f	903.05	NA	9	56	3	24	c	j	2955.36	1	1000	100	0	0
079	5	39	?	N	f	886.22	NA	2	24	7	56	c	n	1586.65	1	1000	100	0	0
079	5	40	?	P	d	735.77	NA	3	56	8	24	i	j	1720.65	1	100	1000	0	0
079	5	41	?	P	d	1119.62	NA	4	56	8	24	i	j	1353.37	1	100	1000	0	0
079	5	42	?	N	f	1787.15	NA	2	24	8	56	c	n	8478.77	1	100	100	0	0
079	5	43	?	N	f	685.67	NA	7	56	4	24	c	j	552.8	1	1000	100	0	0
079	5	44	?	N	f	2004.45	NA	2	24	7	56	c	n	568.35	1	100	100	0	0
079	5	45	?	P	d	1753.7	NA	9	56	3	24	c	j	1353.48	1	1000	100	0	0
079	5	46	?	P	d	567.91	NA	4	24	9	56	c	n	435.29	1	1000	1000	0	0
079	5	47	?	N	f	1119.81	NA	2	24	9	56	c	n	1169.29	1	100	1000	0	0
079	5	48	?	P	d	1419.86	NA	3	56	9	24	i	j	652.16	1	100	1000	0	0
079	5	49	?	N	f	652.42	NA	2	24	8	56	c	n	2771.47	1	1000	100	0	0
079	5	50	?	N	f	452.27	NA	7	24	4	56	i	j	734.97	1	1000	100	0	0
079	5	51	?	N	f	585.77	NA	9	24	2	56	i	j	835.72	1	1000	100	0	0
079	5	52	?	P	d	352.55	NA	3	24	7	56	c	n	1153.51	1	1000	1000	0	0
079	5	53	?	P	d	535.39	NA	7	56	2	24	c	j	1303.17	1	1000	1000	0	0
079	5	54	?	P	d	1153.0	NA	3	24	9	56	c	n	535.41	1	100	100	0	0
079	5	55	?	N	f	369.15	NA	8	56	4	24	c	j	535.85	1	1000	1000	0	0
079	5	56	?	N	f	385.84	NA	2	56	9	24	i	n	1653.73	1	1000	100	0	0
079	5	57	?	P	d	901.55	NA	8	24	4	56	i	n	2437.6	1	100	100	0	0
079	5	58	?	N	f	702.66	NA	7	56	2	24	c	j	952.88	1	100	1000	0	0
079	5	59	?	N	f	953.14	NA	7	56	4	24	c	j	785.99	1	100	1000	0	0
079	5	60	?	P	d	352.14	NA	3	24	8	56	c	n	1218.91	1	1000	100	0	0
079	5	61	?	P	d	385.49	NA	2	56	7	24	i	j	1103.01	1	1000	100	0	0
079	5	62	?	P	d	2771.84	NA	4	56	8	24	i	j	2921.08	1	100	100	0	0
079	5	63	?	N	f	3055.51	NA	2	56	9	24	i	n	1736.78	1	100	1000	0	0
079	5	64	?	N	f	652.43	NA	3	24	8	56	c	n	635.73	1	1000	1000	0	0
079	5	65	?	N	f	2269.83	NA	8	56	4	24	c	j	569.0	1	100	100	0	0
079	6	1	?	P	d	1987.51	NA	4	56	8	24	i	j	836.56	1	1000	100	-1	0
079	6	2	?	P	d	602.56	NA	3	24	8	56	c	n	635.62	1	100	1000	0	0
079	6	3	?	N	f	102.11	NA	9	24	2	56	i	j	869.7	1	1000	100	0	0
079	6	4	?	N	f	635.65	NA	9	56	3	24	c	j	619.05	1	100	100	0	0
079	6	5	?	P	d	469.26	NA	4	24	7	56	c	n	1069.3	1	1000	1000	0	0
079	6	6	?	N	f	368.65	NA	2	24	8	56	c	n	1002.92	1	1000	1000	0	0
079	6	7	?	P	d	402.53	NA	4	56	7	24	i	j	935.81	1	1000	1000	0	0
079	6	8	?	N	f	1053.03	NA	2	56	7	24	i	n	985.01	1	100	100	0	0
079	6	9	?	P	d	468.35	NA	4	56	8	24	i	j	2737.36	1	1000	100	0	0
079	6	10	?	N	f	2971.28	NA	8	24	2	56	i	j	2371.28	1	100	100	0	0
079	6	11	?	N	f	1586.76	NA	7	56	4	24	c	j	2221.33	1	100	1000	0	0
079	6	12	?	N	f	618.67	NA	9	56	2	24	c	j	552.51	1	1000	100	0	0
079	6	13	?	N	f	2270.93	NA	4	56	8	24	i	n	636.06	1	100	1000	0	0
079	6	14	?	P	d	418.82	NA	8	24	2	56	i	n	535.9	1	1000	1000	0	0
079	6	15	?	N	f	435.11	NA	8	56	4	24	c	j	851.87	1	1000	100	0	0
079	6	16	?	P	d	952.89	NA	8	56	2	24	c	j	919.11	1	100	100	0	0
079	6	17	?	P	d	1086.49	NA	9	56	4	24	c	j	702.49	1	100	1000	0	0
079	6	18	?	P	d	1420.22	NA	7	24	3	56	i	n	2120.76	1	100	1000	0	0
079	6	19	?	N	f	452.3	NA	7	56	4	24	c	j	1352.98	1	1000	1000	0	0
079	6	20	?	N	f	1036.37	NA	3	56	9	24	i	n	1019.55	1	100	100	0	0
079	6	21	?	P	d	752.85	NA	4	56	7	24	i	n	1153.24	0	100	100	0	0
079	6	22	?	N	f	1819.82	NA	2	56	7	24	i	n	1570.73	1	100	100	0	1
079	6	23	?	P	d	635.62	NA	8	56	4	24	c	j	451.4	1	100	1000	0	0
079	6	24	?	P	d	1337.31	NA	2	24	9	56	c	n	635.85	1	100	1000	0	0
079	6	25	?	N	f	1920.24	NA	3	24	8	56	c	n	2586.53	1	1000	100	0	0
079	6	26	?	N	f	952.85	NA	4	24	8	56	c	n	1503.85	1	100	1000	0	0
079	6	27	?	P	d	968.98	NA	3	24	8	56	c	n	819.49	1	100	1000	0	0
079	6	28	?	N	f	552.57	NA	8	24	4	56	i	j	1134.97	1	1000	1000	0	0
079	6	29	?	N	f	386.87	NA	2	24	9	56	c	n	836.73	1	1000	1000	0	0
079	6	30	?	N	f	1036.11	NA	4	24	8	56	c	n	619.12	1	100	100	0	0
079	6	31	?	P	d	869.61	NA	2	56	9	24	i	j	2905.01	1	100	1000	0	0
079	6	32	?	P	d	368.98	NA	3	56	7	24	i	j	1019.49	1	1000	1000	0	0
079	6	33	?	N	f	1268.61	NA	7	56	4	24	c	j	1018.84	1	100	1000	0	0
079	6	34	?	N	f	552.39	NA	3	24	7	56	c	n	852.61	1	1000	100	0	0
079	6	35	?	N	f	468.81	NA	4	56	9	24	i	n	2237.63	1	1000	100	0	0
079	6	36	?	P	d	1370.12	NA	2	24	7	56	c	n	501.84	1	100	100	0	0
079	6	37	?	P	d	369.15	NA	8	24	3	56	i	n	785.8	1	1000	1000	0	0
079	6	38	?	P	d	335.4	NA	7	24	2	56	i	j	1419.43	0	1000	100	0	0
079	6	39	?	N	f	953.06	NA	9	24	4	56	i	j	484.74	1	1000	1000	0	1
079	6	40	?	N	f	1653.81	NA	9	24	2	56	i	j	769.37	1	100	100	0	0
079	6	41	?	P	d	386.2	NA	7	56	3	24	c	j	435.59	1	1000	1000	0	0
079	6	42	?	P	d	1436.59	NA	7	56	4	24	c	j	686.05	1	100	100	0	0
079	6	43	?	P	d	969.52	NA	8	56	3	24	c	j	602.59	1	100	100	0	0
079	6	44	?	N	f	434.83	NA	2	56	7	24	i	n	568.86	1	1000	1000	0	0
079	6	45	?	P	d	435.78	NA	4	24	8	56	c	n	517.97	1	1000	100	0	0
079	6	46	?	N	f	1186.38	NA	7	24	3	56	i	j	702.58	1	100	1000	0	0
079	6	47	?	N	f	519.17	NA	4	56	8	24	i	n	602.72	1	1000	100	0	0
079	6	48	?	N	f	1469.54	NA	7	24	2	56	i	j	652.49	1	100	1000	0	0
079	6	49	?	P	d	418.89	NA	7	56	4	24	c	j	919.31	1	1000	100	0	0
079	6	50	?	P	d	652.5	NA	2	56	8	24	i	n	668.76	0	100	1000	0	0
079	6	51	?	P	d	1636.76	NA	3	24	7	56	c	n	1002.95	1	100	100	0	1
079	6	52	?	N	f	385.95	NA	7	24	4	56	i	n	2086.41	0	1000	100	0	0
079	6	53	?	N	f	835.93	NA	3	24	7	56	c	n	1019.34	1	1000	100	0	1
079	6	54	?	P	d	768.03	NA	8	24	2	56	i	n	1152.49	1	1000	1000	0	0
079	6	55	?	P	d	1103.5	NA	3	56	9	24	i	j	635.03	1	100	100	0	0
079	6	56	?	N	f	702.85	NA	7	56	2	24	c	j	1653.8	1	1000	1000	0	0
079	6	57	?	N	f	385.63	NA	8	56	4	24	c	j	568.48	1	1000	1000	0	0
079	6	58	?	P	d	936.13	NA	9	24	3	56	i	n	2604.82	1	100	100	0	0
079	6	59	?	P	d	1753.93	NA	9	56	2	24	c	j	985.72	1	1000	100	0	0
079	6	60	?	N	f	452.49	NA	8	24	3	56	i	j	1052.77	1	1000	100	0	0
079	6	61	?	N	f	636.19	NA	4	24	8	56	c	n	2504.73	1	1000	1000	0	0
079	6	62	?	N	f	502.48	NA	3	56	7	24	i	n	719.16	1	1000	100	0	0
079	6	63	?	P	d	936.08	NA	2	24	7	56	c	n	936.15	1	100	100	0	0
079	6	64	?	P	d	517.68	NA	9	24	4	56	i	n	1019.52	1	100	1000	0	0
079	6	65	?	N	f	751.33	NA	2	56	9	24	i	n	769.36	1	100	1000	0	0
