subj	block	trial	task_cue	task	choice_resp	choiceRT	choice_acc	topnum	topsize	botnum	botsize	cong	task_resp	taskRT	task_acc	RSI	CSI	altRep	E1
085	1	1	?	N	f	969.06	NA	8	56	3	24	c	j	986.28	1	1000	1000	-1	0
085	1	2	?	N	f	568.97	NA	4	24	7	56	c	n	1353.24	1	1000	1000	0	0
085	1	3	?	P	d	601.97	NA	8	56	3	24	c	j	1070.36	1	100	1000	0	0
085	1	4	?	P	d	685.92	NA	4	56	9	24	i	n	851.82	0	100	1000	0	0
085	1	5	?	P	d	1503.39	NA	7	24	3	56	i	j	1753.93	0	100	100	0	1
085	1	6	?	N	f	435.3	NA	7	56	2	24	c	j	969.49	1	1000	1000	0	1
085	1	7	?	N	f	2420.84	NA	4	24	9	56	c	n	1170.08	1	100	100	0	0
085	1	8	?	P	d	402.01	NA	2	56	9	24	i	j	6375.0	1	1000	100	0	0
085	1	9	?	N	f	368.51	NA	3	56	9	24	i	n	986.36	1	1000	1000	0	0
085	1	10	?	N	f	1168.9	NA	7	24	4	56	i	j	1119.54	1	1000	100	0	0
085	1	11	?	P	d	485.6	NA	7	24	2	56	i	n	1103.45	1	100	100	0	0
085	1	12	?	N	f	1853.91	NA	8	56	3	24	c	j	836.15	1	100	1000	0	0
085	1	13	?	N	f	485.57	NA	9	56	2	24	c	j	467.23	1	100	1000	0	0
085	1	14	?	P	d	669.17	NA	8	24	3	56	i	n	452.36	1	100	1000	0	0
085	1	15	?	P	d	18.36	NA	4	24	8	56	c	n	752.53	1	1000	100	0	0
085	1	16	?	P	d	35.06	NA	3	56	8	24	i	j	635.57	1	1000	100	0	0
085	1	17	?	N	f	1569.79	NA	4	56	7	24	i	n	636.04	1	1000	1000	0	0
085	1	18	?	P	d	418.82	NA	9	56	2	24	c	j	1536.74	1	1000	100	0	0
085	1	19	?	N	f	819.23	NA	3	56	7	24	i	n	1103.0	1	1000	1000	0	0
085	1	20	?	N	f	735.83	NA	4	56	8	24	i	n	986.49	1	100	1000	0	0
085	1	21	?	P	d	285.22	NA	2	24	8	56	c	n	785.74	1	100	100	0	0
085	1	22	?	P	d	1136.41	NA	3	24	8	56	c	n	2070.71	1	1000	1000	0	0
085	1	23	?	P	d	352.06	NA	9	24	4	56	i	n	1086.29	1	1000	100	0	0
085	1	24	?	N	f	402.54	NA	2	56	7	24	i	n	2037.11	1	100	1000	0	0
085	1	25	?	N	f	535.85	NA	9	24	3	56	i	j	1236.79	1	100	100	0	0
085	1	26	?	N	f	651.84	NA	4	24	8	56	c	n	1002.95	1	100	1000	0	0
085	1	27	?	P	d	234.83	NA	8	24	3	56	i	j	934.78	0	100	1000	0	0
085	1	28	?	P	d	318.89	NA	4	24	9	56	c	n	1035.98	1	1000	100	0	1
085	1	29	?	P	d	502.15	NA	9	56	2	24	c	j	736.33	1	100	100	0	0
085	1	30	?	N	f	368.8	NA	7	24	3	56	i	j	719.35	1	1000	1000	0	0
085	1	31	?	P	d	902.82	NA	7	24	4	56	i	n	1353.11	1	1000	1000	0	0
085	1	32	?	N	f	535.71	NA	2	24	7	56	c	n	1153.02	1	100	1000	0	0
085	1	33	?	N	f	786.47	NA	4	24	7	56	c	n	1019.76	1	100	1000	0	0
085	1	34	?	P	d	1136.05	NA	7	24	2	56	i	j	919.41	0	100	100	0	0
085	1	35	?	P	d	819.11	NA	8	56	4	24	c	j	2954.74	1	1000	100	0	1
085	1	36	?	P	d	2571.12	NA	2	24	7	56	c	n	602.33	1	1000	1000	0	0
085	1	37	?	N	f	1119.8	NA	4	56	7	24	i	n	1185.05	1	100	100	0	0
085	1	38	?	N	f	752.65	NA	7	24	3	56	i	j	1119.59	1	100	1000	0	0
085	1	39	?	P	d	1286.49	NA	2	56	7	24	i	j	785.02	1	1000	1000	0	0
085	1	40	?	P	d	402.14	NA	4	24	7	56	c	n	952.91	1	1000	100	0	0
085	1	41	?	N	f	1019.45	NA	3	56	7	24	i	n	735.95	1	1000	100	0	0
085	1	42	?	N	f	318.2	NA	8	24	2	56	i	j	802.78	1	1000	1000	0	0
085	1	43	?	P	d	234.89	NA	8	56	3	24	c	j	919.14	1	1000	100	0	0
085	1	44	?	P	d	485.11	NA	4	24	9	56	c	n	1069.7	1	1000	1000	0	0
085	1	45	?	N	f	201.87	NA	8	56	2	24	c	j	552.05	1	1000	1000	0	0
085	1	46	?	P	d	101.93	NA	4	24	7	56	c	n	919.56	1	1000	100	0	0
085	1	47	?	N	f	752.88	NA	3	24	8	56	c	n	2187.2	1	100	100	0	0
085	1	48	?	N	f	551.28	NA	9	24	4	56	i	j	852.34	1	100	100	0	0
085	1	49	?	N	f	502.63	NA	7	56	3	24	c	j	652.02	1	100	100	0	0
085	1	50	?	P	d	452.15	NA	8	56	4	24	c	j	1136.06	1	100	1000	0	0
085	1	51	?	P	d	268.23	NA	3	56	7	24	i	n	702.67	0	1000	1000	0	0
085	1	52	?	P	d	1586.88	NA	4	24	7	56	c	n	886.23	1	100	1000	0	1
085	1	53	?	P	d	2570.43	NA	8	56	3	24	c	j	669.37	1	1000	1000	0	0
085	1	54	?	N	f	485.16	NA	7	56	4	24	c	j	635.51	1	1000	1000	0	0
085	1	55	?	N	f	435.81	NA	7	24	2	56	i	j	852.71	1	100	1000	0	0
085	1	56	?	N	f	435.1	NA	7	56	4	24	c	j	2954.61	1	100	100	0	0
085	1	57	?	N	f	652.42	NA	8	56	3	24	c	j	719.49	1	100	100	0	0
085	1	58	?	P	d	418.99	NA	9	56	4	24	c	j	685.64	1	1000	100	0	0
085	1	59	?	P	d	552.25	NA	9	24	3	56	i	n	1103.12	1	1000	100	0	0
085	1	60	?	P	d	418.4	NA	2	56	7	24	i	j	969.65	1	100	100	0	0
085	1	61	?	N	f	1103.21	NA	7	24	4	56	i	j	1086.33	1	100	100	0	0
085	1	62	?	N	f	418.5	NA	7	24	2	56	i	j	1252.4	1	100	1000	0	0
085	1	63	?	P	d	1786.84	NA	3	56	7	24	i	j	802.7	1	1000	100	0	0
085	1	64	?	N	f	401.53	NA	4	56	7	24	i	n	1002.01	1	1000	100	0	0
085	1	65	?	P	d	452.22	NA	3	24	7	56	c	n	1319.89	1	100	100	0	0
085	2	1	?	N	f	652.32	NA	9	24	3	56	i	j	903.01	1	100	1000	-1	0
085	2	2	?	N	f	585.6	NA	4	24	7	56	c	n	1136.56	1	100	100	0	0
085	2	3	?	N	f	435.41	NA	7	24	3	56	i	j	686.12	1	100	100	0	0
085	2	4	?	P	d	769.81	NA	8	24	2	56	i	n	936.08	1	1000	1000	0	0
085	2	5	?	P	d	352.09	NA	3	24	7	56	c	n	652.33	1	100	100	0	0
085	2	6	?	N	f	1020.03	NA	4	24	9	56	c	n	819.48	1	1000	100	0	0
085	2	7	?	N	f	1069.39	NA	8	24	3	56	i	j	1036.4	1	1000	1000	0	0
085	2	8	?	P	d	134.41	NA	7	24	2	56	i	n	1085.38	1	1000	100	0	0
085	2	9	?	P	d	1202.97	NA	3	24	8	56	c	n	552.13	1	100	1000	0	0
085	2	10	?	P	d	585.45	NA	4	24	9	56	c	n	936.03	1	1000	1000	0	0
085	2	11	?	N	f	468.47	NA	9	56	2	24	c	j	2855.25	1	1000	100	0	0
085	2	12	?	P	d	1153.1	NA	8	24	4	56	i	n	1052.99	1	100	1000	0	0
085	2	13	?	N	f	1035.71	NA	2	56	8	24	i	n	1002.94	1	100	100	0	0
085	2	14	?	N	f	552.01	NA	9	56	3	24	c	j	1019.61	1	100	1000	0	0
085	2	15	?	N	f	835.88	NA	4	24	7	56	c	n	735.67	1	100	100	0	0
085	2	16	?	P	d	768.99	NA	7	56	3	24	c	j	1585.45	1	100	1000	0	0
085	2	17	?	P	d	1186.64	NA	8	24	2	56	i	n	1019.71	1	1000	100	0	0
085	2	18	?	P	d	385.28	NA	8	56	3	24	c	j	1219.58	1	100	100	0	0
085	2	19	?	P	d	1469.38	NA	8	24	4	56	i	n	1135.6	1	1000	1000	0	0
085	2	20	?	P	d	400.54	NA	3	56	9	24	i	j	1837.17	1	100	1000	0	0
085	2	21	?	N	f	602.11	NA	4	56	8	24	i	n	1002.07	1	100	1000	0	0
085	2	22	?	N	f	301.83	NA	8	24	2	56	i	j	651.8	1	100	100	0	0
085	2	23	?	N	f	284.76	NA	7	56	3	24	c	j	685.66	1	100	100	0	0
085	2	24	?	P	d	769.79	NA	4	56	7	24	i	j	1336.61	1	1000	100	0	0
085	2	25	?	P	d	368.86	NA	8	24	2	56	i	n	819.95	1	100	100	0	0
085	2	26	?	N	f	1253.01	NA	8	56	3	24	c	j	1103.05	1	1000	100	0	0
085	2	27	?	P	d	635.72	NA	9	56	4	24	c	j	1720.41	1	1000	100	0	0
085	2	28	?	P	d	301.44	NA	7	24	2	56	i	n	918.94	1	1000	1000	0	0
085	2	29	?	P	d	502.62	NA	4	56	9	24	i	j	1586.1	1	100	100	0	0
085	2	30	?	N	f	586.23	NA	8	24	3	56	i	j	686.19	1	1000	1000	0	0
085	2	31	?	P	d	585.6	NA	9	56	4	24	c	j	1086.62	1	1000	1000	0	0
085	2	32	?	N	f	669.22	NA	2	56	7	24	i	n	653.09	1	1000	100	0	0
085	2	33	?	N	f	405.45	NA	8	24	3	56	i	j	951.96	1	1000	100	0	0
085	2	34	?	N	f	468.81	NA	8	56	2	24	c	j	1703.8	1	1000	1000	0	0
085	2	35	?	N	f	852.81	NA	3	56	7	24	i	n	1036.38	1	100	1000	0	0
085	2	36	?	P	d	268.11	NA	2	56	7	24	i	j	1052.84	1	1000	1000	0	0
085	2	37	?	P	d	402.07	NA	7	56	3	24	c	j	1420.4	1	100	1000	0	0
085	2	38	?	N	f	802.51	NA	9	56	2	24	c	j	518.87	1	1000	1000	0	0
085	2	39	?	N	f	2519.68	NA	3	24	8	56	c	n	1119.01	1	100	100	0	0
085	2	40	?	N	f	1369.86	NA	4	24	9	56	c	n	1019.67	1	100	1000	0	0
085	2	41	?	P	d	435.7	NA	2	24	8	56	c	n	769.52	1	1000	100	0	0
085	2	42	?	P	d	435.4	NA	3	24	7	56	c	n	752.7	1	1000	100	0	0
085	2	43	?	N	f	151.71	NA	4	24	7	56	c	n	619.15	1	1000	1000	0	0
085	2	44	?	N	f	719.16	NA	3	24	9	56	c	n	919.07	1	1000	1000	0	0
085	2	45	?	N	f	1502.82	NA	7	56	4	24	c	j	752.48	1	100	100	0	0
085	2	46	?	P	d	1253.05	NA	9	56	3	24	c	j	1052.57	1	100	100	0	0
085	2	47	?	P	d	201.95	NA	8	24	4	56	i	n	719.55	1	1000	100	0	0
085	2	48	?	N	f	468.88	NA	2	56	7	24	i	n	702.47	1	1000	1000	0	0
085	2	49	?	N	f	351.86	NA	9	56	4	24	c	j	602.41	1	1000	100	0	0
085	2	50	?	P	d	85.12	NA	2	56	7	24	i	n	1319.72	0	1000	100	0	0
085	2	51	?	P	d	1970.76	NA	9	24	4	56	i	n	1670.41	1	100	100	0	1
085	2	52	?	P	d	952.57	NA	8	56	2	24	c	j	619.28	1	1000	1000	0	0
085	2	53	?	N	f	51.57	NA	4	24	8	56	c	n	1770.12	1	1000	100	0	0
085	2	54	?	N	f	385.6	NA	2	24	8	56	c	n	1302.9	1	1000	1000	0	0
085	2	55	?	P	d	435.54	NA	3	56	8	24	i	j	1603.6	1	100	1000	0	0
085	2	56	?	P	d	435.24	NA	4	24	9	56	c	n	1069.49	1	100	1000	0	0
085	2	57	?	P	d	435.39	NA	8	24	3	56	i	n	1019.71	1	100	100	0	0
085	2	58	?	P	d	401.68	NA	9	24	2	56	i	n	702.68	1	100	1000	0	0
085	2	59	?	N	f	652.79	NA	8	24	3	56	i	j	1203.58	1	100	1000	0	0
085	2	60	?	N	f	301.94	NA	7	24	2	56	i	j	1319.53	1	1000	100	0	0
085	2	61	?	N	f	535.64	NA	8	56	4	24	c	j	1001.53	1	100	1000	0	0
085	2	62	?	P	d	2053.44	NA	2	56	9	24	i	j	986.17	1	100	1000	0	0
085	2	63	?	P	d	351.89	NA	3	56	8	24	i	j	668.92	1	100	100	0	0
085	2	64	?	P	d	769.14	NA	4	56	8	24	i	j	518.24	1	1000	1000	0	0
085	2	65	?	N	f	1119.61	NA	2	24	7	56	c	n	952.89	1	100	1000	0	0
085	3	1	?	N	f	1203.03	NA	2	56	9	24	i	n	1186.5	1	100	100	-1	0
085	3	2	?	N	f	418.74	NA	8	56	4	24	c	j	902.86	1	100	100	0	0
085	3	3	?	N	f	685.77	NA	8	24	3	56	i	j	1719.77	1	1000	1000	0	0
085	3	4	?	P	d	1153.04	NA	4	24	8	56	c	n	501.99	1	1000	1000	0	0
085	3	5	?	N	f	1236.48	NA	3	56	8	24	i	n	686.05	1	100	100	0	0
085	3	6	?	P	d	318.38	NA	7	24	2	56	i	j	801.17	0	1000	100	0	0
085	3	7	?	P	d	1119.19	NA	7	56	4	24	c	j	619.3	1	100	1000	0	1
085	3	8	?	P	d	819.03	NA	3	56	8	24	i	j	1052.67	1	100	1000	0	0
085	3	9	?	N	f	518.38	NA	8	56	2	24	c	j	969.52	1	100	100	0	0
085	3	10	?	N	f	752.86	NA	9	24	4	56	i	j	1103.21	1	100	1000	0	0
085	3	11	?	P	d	568.46	NA	2	56	8	24	i	j	1069.54	1	100	100	0	0
085	3	12	?	P	d	235.18	NA	4	56	9	24	i	n	1137.16	0	1000	100	0	0
085	3	13	?	P	d	1718.87	NA	3	24	7	56	c	n	753.21	1	100	100	0	1
085	3	14	?	P	d	51.62	NA	9	24	4	56	i	n	869.78	1	1000	1000	0	0
085	3	15	?	N	f	586.01	NA	2	56	9	24	i	n	1319.66	1	100	1000	0	0
085	3	16	?	N	f	1070.35	NA	3	24	9	56	c	n	1286.37	1	100	100	0	0
085	3	17	?	N	f	752.66	NA	4	56	9	24	i	n	669.22	1	1000	1000	0	0
085	3	18	?	N	f	518.91	NA	9	24	2	56	i	j	752.73	1	100	1000	0	0
085	3	19	?	P	d	85.23	NA	3	56	9	24	i	j	1119.89	1	1000	100	0	0
085	3	20	?	N	f	268.6	NA	7	56	4	24	c	j	1402.77	1	1000	100	0	0
085	3	21	?	P	d	635.92	NA	2	56	8	24	i	j	1836.19	1	1000	100	0	0
085	3	22	?	P	d	301.49	NA	3	24	9	56	c	n	952.43	1	1000	100	0	0
085	3	23	?	P	d	485.49	NA	7	24	2	56	i	n	1186.48	1	100	1000	0	0
085	3	24	?	N	f	519.38	NA	4	24	8	56	c	n	701.89	1	100	1000	0	0
085	3	25	?	P	d	285.45	NA	8	56	3	24	c	j	869.62	1	1000	100	0	0
085	3	26	?	N	f	435.74	NA	4	24	9	56	c	n	552.26	1	100	1000	0	0
085	3	27	?	N	f	635.67	NA	2	24	8	56	c	n	584.89	1	100	100	0	0
085	3	28	?	N	f	818.99	NA	4	56	7	24	i	n	869.67	1	1000	100	0	0
085	3	29	?	P	d	418.32	NA	2	24	7	56	c	n	601.88	1	100	1000	0	0
085	3	30	?	P	d	402.41	NA	3	56	9	24	i	j	702.62	1	100	100	0	0
085	3	31	?	P	d	502.28	NA	2	24	9	56	c	n	568.63	1	1000	100	0	0
085	3	32	?	N	f	618.97	NA	4	24	9	56	c	n	685.44	1	1000	1000	0	0
085	3	33	?	N	f	685.55	NA	7	56	2	24	c	j	518.79	1	1000	1000	0	0
085	3	34	?	P	d	435.62	NA	9	56	4	24	c	j	552.73	1	100	1000	0	0
085	3	35	?	P	d	567.61	NA	3	56	8	24	i	j	652.23	1	1000	1000	0	0
085	3	36	?	N	f	1386.39	NA	4	24	8	56	c	n	684.92	1	100	100	0	0
085	3	37	?	N	f	469.06	NA	7	56	2	24	c	j	502.24	1	100	100	0	0
085	3	38	?	N	f	402.06	NA	9	24	3	56	i	j	768.92	1	100	100	0	0
085	3	39	?	P	d	485.33	NA	2	24	9	56	c	n	518.01	1	1000	100	0	0
085	3	40	?	P	d	535.7	NA	3	24	7	56	c	n	752.79	1	1000	100	0	0
085	3	41	?	P	d	17.68	NA	7	56	4	24	c	j	936.22	1	1000	1000	0	0
085	3	42	?	N	f	1336.63	NA	3	24	9	56	c	n	552.39	1	100	1000	0	0
085	3	43	?	P	d	318.6	NA	2	24	7	56	c	n	434.9	1	1000	1000	0	0
085	3	44	?	N	f	2486.92	NA	8	24	4	56	i	j	902.92	1	1000	1000	0	0
085	3	45	?	N	f	601.65	NA	8	24	2	56	i	j	2087.06	1	1000	100	0	0
085	3	46	?	P	d	652.36	NA	8	24	3	56	i	n	902.64	1	100	100	0	0
085	3	47	?	N	f	385.44	NA	2	56	8	24	i	n	719.48	1	1000	100	0	0
085	3	48	?	P	d	502.26	NA	3	24	8	56	c	n	702.42	1	1000	1000	0	0
085	3	49	?	P	d	450.59	NA	4	56	9	24	i	j	869.33	1	1000	1000	0	0
085	3	50	?	N	f	85.35	NA	7	56	2	24	c	j	936.61	1	1000	100	0	0
085	3	51	?	N	f	552.24	NA	4	56	8	24	i	n	769.38	1	100	100	0	0
085	3	52	?	P	d	1920.53	NA	7	56	2	24	c	j	1019.69	1	100	1000	0	0
085	3	53	?	N	f	419.91	NA	3	56	8	24	i	n	502.29	1	1000	1000	0	0
085	3	54	?	N	f	118.34	NA	8	56	4	24	c	j	602.53	1	1000	100	0	0
085	3	55	?	N	f	318.41	NA	3	56	8	24	i	n	686.21	1	1000	1000	0	0
085	3	56	?	P	d	1336.55	NA	9	24	2	56	i	n	869.81	1	100	1000	0	0
085	3	57	?	N	f	317.96	NA	8	56	4	24	c	j	534.55	1	1000	1000	0	0
085	3	58	?	P	d	935.72	NA	8	56	2	24	c	j	919.44	1	100	100	0	0
085	3	59	?	N	f	669.07	NA	9	24	3	56	i	j	735.85	1	100	1000	0	0
085	3	60	?	P	d	451.71	NA	9	24	4	56	i	n	801.83	1	100	100	0	0
085	3	61	?	P	d	807.65	NA	9	56	3	24	c	j	719.75	1	100	1000	0	0
085	3	62	?	P	d	351.96	NA	9	24	2	56	i	n	734.96	1	1000	100	0	0
085	3	63	?	N	f	469.08	NA	8	24	4	56	i	j	569.29	1	100	100	0	0
085	3	64	?	P	d	234.7	NA	7	56	3	24	c	j	468.5	1	1000	1000	0	0
085	3	65	?	N	f	469.14	NA	2	56	8	24	i	n	952.98	1	100	1000	0	0
085	4	1	?	N	f	1152.46	NA	9	56	4	24	c	j	2354.87	1	100	1000	-1	0
085	4	2	?	N	f	485.05	NA	7	24	2	56	i	j	519.11	1	1000	1000	0	0
085	4	3	?	P	d	1436.44	NA	7	56	3	24	c	j	1102.67	1	100	100	0	0
085	4	4	?	N	f	569.32	NA	7	24	2	56	i	j	1336.57	1	1000	100	0	0
085	4	5	?	P	d	301.88	NA	3	24	7	56	c	n	535.48	1	1000	1000	0	0
085	4	6	?	P	d	335.55	NA	4	56	8	24	i	j	385.3	1	1000	1000	0	0
085	4	7	?	N	f	1136.07	NA	3	24	9	56	c	n	719.29	1	100	1000	0	0
085	4	8	?	N	f	1319.61	NA	8	56	4	24	c	j	936.63	1	100	100	0	0
085	4	9	?	N	f	1419.98	NA	9	24	3	56	i	j	819.48	1	100	1000	0	0
085	4	10	?	P	d	18.36	NA	2	24	7	56	c	n	935.34	1	1000	1000	0	0
085	4	11	?	P	d	435.62	NA	7	24	3	56	i	j	652.7	0	1000	1000	0	0
085	4	12	?	P	d	1086.79	NA	4	56	7	24	i	j	702.47	1	100	1000	0	1
085	4	13	?	P	d	251.14	NA	2	24	7	56	c	n	619.11	1	1000	100	0	0
085	4	14	?	P	d	535.33	NA	7	24	4	56	i	n	786.08	1	100	1000	0	0
085	4	15	?	N	f	585.3	NA	3	56	9	24	i	n	669.38	1	1000	100	0	0
085	4	16	?	P	d	284.53	NA	9	56	2	24	c	j	886.06	1	1000	100	0	0
085	4	17	?	N	f	1119.63	NA	9	24	3	56	i	j	1270.77	1	1000	100	0	0
085	4	18	?	N	f	335.47	NA	4	56	7	24	i	n	853.58	1	1000	1000	0	0
085	4	19	?	N	f	1.72	NA	8	56	3	24	c	j	1036.56	1	1000	1000	0	0
085	4	20	?	P	d	535.55	NA	4	56	7	24	i	j	719.6	1	100	100	0	0
085	4	21	?	N	f	802.28	NA	7	56	3	24	c	j	551.42	1	100	1000	0	0
085	4	22	?	P	d	301.9	NA	2	24	7	56	c	n	736.1	1	1000	1000	0	0
085	4	23	?	P	d	1553.64	NA	3	56	7	24	i	j	1503.12	1	100	1000	0	0
085	4	24	?	N	f	434.5	NA	4	56	8	24	i	n	569.02	1	100	1000	0	0
085	4	25	?	N	f	502.16	NA	3	56	9	24	i	n	918.71	1	1000	1000	0	0
085	4	26	?	N	f	535.71	NA	2	56	8	24	i	n	551.63	1	100	1000	0	0
085	4	27	?	P	d	468.95	NA	9	56	3	24	c	j	769.39	1	100	1000	0	0
085	4	28	?	P	d	1203.02	NA	2	56	7	24	i	j	1553.5	1	1000	100	0	0
085	4	29	?	P	d	1186.24	NA	9	24	4	56	i	n	1169.86	1	100	100	0	0
085	4	30	?	N	f	1570.08	NA	2	24	8	56	c	n	769.2	1	100	100	0	0
085	4	31	?	N	f	452.24	NA	9	56	4	24	c	j	1086.49	1	1000	100	0	0
085	4	32	?	N	f	1219.45	NA	7	56	3	24	c	j	1003.21	1	100	1000	0	0
085	4	33	?	P	d	468.35	NA	2	24	7	56	c	n	569.25	1	100	100	0	0
085	4	34	?	N	f	902.06	NA	7	56	3	24	c	j	702.59	1	100	100	0	0
085	4	35	?	P	d	584.1	NA	7	24	4	56	i	n	602.27	1	100	100	0	0
085	4	36	?	N	f	301.91	NA	3	56	8	24	i	n	784.79	1	1000	100	0	0
085	4	37	?	P	d	635.79	NA	4	56	8	24	i	j	1152.73	1	100	100	0	0
085	4	38	?	P	d	769.04	NA	8	24	3	56	i	n	836.03	1	100	100	0	0
085	4	39	?	P	d	619.14	NA	8	56	2	24	c	j	952.03	1	100	100	0	0
085	4	40	?	N	f	669.11	NA	3	24	7	56	c	n	919.57	1	100	1000	0	0
085	4	41	?	N	f	84.55	NA	9	24	4	56	i	j	1520.39	1	1000	100	0	0
085	4	42	?	P	d	51.99	NA	8	56	2	24	c	j	1269.55	1	1000	100	0	0
085	4	43	?	P	d	568.85	NA	3	56	9	24	i	j	1269.79	1	1000	1000	0	0
085	4	44	?	P	d	685.66	NA	4	24	7	56	c	n	635.82	1	1000	100	0	0
085	4	45	?	N	f	518.83	NA	7	24	2	56	i	j	1002.88	1	100	1000	0	0
085	4	46	?	N	f	368.93	NA	3	24	7	56	c	n	552.51	1	1000	100	0	0
085	4	47	?	P	d	185.19	NA	4	24	7	56	c	n	751.64	1	1000	1000	0	0
085	4	48	?	P	d	852.66	NA	8	56	3	24	c	j	786.14	1	1000	1000	0	0
085	4	49	?	N	f	352.03	NA	7	24	4	56	i	j	819.37	1	1000	1000	0	0
085	4	50	?	N	f	2137.35	NA	9	24	2	56	i	j	735.89	1	100	100	0	0
085	4	51	?	N	f	285.59	NA	4	56	9	24	i	n	619.12	1	1000	1000	0	0
085	4	52	?	P	d	1069.54	NA	9	56	3	24	c	j	419.06	1	100	1000	0	0
085	4	53	?	P	d	518.98	NA	2	24	7	56	c	n	601.9	1	100	100	0	0
085	4	54	?	N	f	435.42	NA	3	56	7	24	i	n	986.03	1	1000	100	0	0
085	4	55	?	N	f	368.1	NA	4	24	8	56	c	n	636.22	1	1000	100	0	0
085	4	56	?	N	f	702.62	NA	2	56	8	24	i	n	1052.99	1	100	1000	0	0
085	4	57	?	N	f	735.79	NA	4	56	7	24	i	n	1436.54	1	1000	100	0	0
085	4	58	?	P	d	602.1	NA	2	56	9	24	i	j	719.32	1	100	100	0	0
085	4	59	?	N	f	318.76	NA	8	56	4	24	c	j	652.73	1	1000	1000	0	0
085	4	60	?	P	d	469.03	NA	8	56	3	24	c	j	886.14	1	1000	100	0	0
085	4	61	?	P	d	618.87	NA	2	24	8	56	c	n	568.36	1	100	100	0	0
085	4	62	?	N	f	518.81	NA	3	56	8	24	i	n	769.04	1	100	100	0	0
085	4	63	?	P	d	537.1	NA	7	56	4	24	c	j	569.26	1	1000	1000	0	0
085	4	64	?	P	d	485.65	NA	3	24	9	56	c	n	485.59	1	100	1000	0	0
085	4	65	?	P	d	1154.06	NA	4	24	9	56	c	n	469.04	1	100	1000	0	0
085	5	1	?	N	f	552.6	NA	2	24	8	56	c	n	552.4	1	1000	1000	-1	0
085	5	2	?	N	f	452.05	NA	3	56	7	24	i	n	686.07	1	1000	100	0	0
085	5	3	?	P	d	151.62	NA	2	56	9	24	i	j	802.56	1	1000	100	0	0
085	5	4	?	P	d	469.01	NA	9	56	3	24	c	j	786.16	1	100	1000	0	0
085	5	5	?	P	d	368.56	NA	4	24	8	56	c	n	552.36	1	1000	100	0	0
085	5	6	?	N	f	485.36	NA	3	56	8	24	i	n	852.59	1	1000	100	0	0
085	5	7	?	P	d	285.02	NA	8	24	4	56	i	n	469.05	1	1000	1000	0	0
085	5	8	?	N	f	467.5	NA	3	24	7	56	c	n	1102.94	1	1000	1000	0	0
085	5	9	?	N	f	602.33	NA	2	24	9	56	c	n	836.09	1	100	100	0	0
085	5	10	?	N	f	301.15	NA	4	24	9	56	c	n	785.96	1	1000	1000	0	0
085	5	11	?	P	d	652.43	NA	7	24	3	56	i	n	803.21	1	100	1000	0	0
085	5	12	?	P	d	469.05	NA	9	56	4	24	c	j	435.94	1	1000	1000	0	0
085	5	13	?	N	f	235.12	NA	7	56	2	24	c	j	802.68	1	1000	100	0	0
085	5	14	?	N	f	334.51	NA	4	56	7	24	i	n	1303.5	1	1000	1000	0	0
085	5	15	?	N	f	585.72	NA	3	56	9	24	i	n	768.9	1	100	1000	0	0
085	5	16	?	P	d	285.52	NA	7	24	2	56	i	j	918.79	0	1000	100	0	0
085	5	17	?	P	d	2137.55	NA	8	24	4	56	i	n	836.13	1	100	100	0	1
085	5	18	?	P	d	1937.04	NA	2	24	9	56	c	n	569.1	1	100	1000	0	0
085	5	19	?	P	d	652.54	NA	4	56	7	24	i	j	569.64	1	100	1000	0	0
085	5	20	?	P	d	1954.2	NA	2	56	7	24	i	j	802.42	1	100	100	0	0
085	5	21	?	N	f	485.82	NA	4	24	9	56	c	n	869.3	1	100	100	0	0
085	5	22	?	N	f	468.67	NA	3	24	8	56	c	n	585.8	1	1000	1000	0	0
085	5	23	?	N	f	685.61	NA	7	56	4	24	c	j	602.96	1	1000	1000	0	0
085	5	24	?	N	f	234.44	NA	3	56	9	24	i	n	1369.79	1	1000	1000	0	0
085	5	25	?	N	f	502.34	NA	7	24	2	56	i	j	619.34	1	1000	1000	0	0
085	5	26	?	P	d	1669.7	NA	4	56	9	24	i	j	1169.6	1	100	100	0	0
085	5	27	?	N	f	769.23	NA	8	56	2	24	c	j	618.51	1	100	100	0	0
085	5	28	?	P	d	502.04	NA	8	24	3	56	i	n	785.91	1	100	100	0	0
085	5	29	?	P	d	635.9	NA	9	56	2	24	c	j	552.43	1	100	100	0	0
085	5	30	?	N	f	452.09	NA	4	24	7	56	c	n	1303.9	1	100	100	0	0
085	5	31	?	P	d	451.98	NA	7	24	3	56	i	n	552.62	1	100	1000	0	0
085	5	32	?	P	d	385.12	NA	4	56	9	24	i	j	617.72	1	100	100	0	0
085	5	33	?	N	f	552.24	NA	3	56	8	24	i	n	669.17	1	1000	1000	0	0
085	5	34	?	N	f	486.16	NA	4	24	7	56	c	n	619.22	1	1000	100	0	0
085	5	35	?	N	f	518.57	NA	3	24	8	56	c	n	552.84	1	1000	100	0	0
085	5	36	?	P	d	651.72	NA	4	56	9	24	i	j	519.0	1	100	1000	0	0
085	5	37	?	P	d	385.57	NA	3	56	8	24	i	j	502.37	1	1000	100	0	0
085	5	38	?	N	f	735.65	NA	2	56	7	24	i	n	1086.51	1	100	1000	0	0
085	5	39	?	N	f	318.4	NA	3	56	9	24	i	n	1002.64	1	1000	100	0	0
085	5	40	?	N	f	1219.41	NA	8	56	2	24	c	j	618.97	1	100	100	0	0
085	5	41	?	P	d	318.22	NA	4	56	7	24	i	j	452.3	1	1000	1000	0	0
085	5	42	?	P	d	352.16	NA	3	24	9	56	c	n	1019.6	1	100	1000	0	0
085	5	43	?	P	d	201.81	NA	8	24	4	56	i	n	953.14	1	100	100	0	0
085	5	44	?	P	d	201.8	NA	9	56	3	24	c	j	685.85	1	100	100	0	0
085	5	45	?	N	f	352.07	NA	8	24	2	56	i	j	1003.07	1	100	100	0	0
085	5	46	?	N	f	284.35	NA	3	24	7	56	c	n	669.16	1	100	100	0	0
085	5	47	?	P	d	652.58	NA	4	24	9	56	c	n	518.91	1	1000	1000	0	0
085	5	48	?	N	f	485.85	NA	9	56	3	24	c	j	435.76	1	100	1000	0	0
085	5	49	?	N	f	368.87	NA	7	24	2	56	i	j	919.4	1	100	1000	0	0
085	5	50	?	P	d	285.3	NA	4	56	8	24	i	j	1453.18	1	1000	100	0	0
085	5	51	?	P	d	401.65	NA	2	56	9	24	i	j	485.49	1	1000	1000	0	0
085	5	52	?	N	f	34.87	NA	7	56	3	24	c	j	619.44	1	1000	100	0	0
085	5	53	?	N	f	301.38	NA	4	24	9	56	c	n	836.15	1	100	1000	0	0
085	5	54	?	N	f	235.14	NA	7	56	2	24	c	j	519.0	1	100	1000	0	0
085	5	55	?	P	d	501.45	NA	7	56	4	24	c	j	1002.75	1	100	1000	0	0
085	5	56	?	P	d	484.87	NA	8	56	2	24	c	j	502.22	1	1000	100	0	0
085	5	57	?	N	f	301.87	NA	9	56	4	24	c	j	485.92	1	1000	1000	0	0
085	5	58	?	N	f	584.26	NA	9	24	2	56	i	j	1186.29	1	1000	100	0	0
085	5	59	?	N	f	1269.93	NA	3	56	7	24	i	n	969.22	1	100	100	0	0
085	5	60	?	P	d	335.44	NA	8	56	2	24	c	j	586.17	1	1000	100	0	0
085	5	61	?	P	d	335.39	NA	4	24	9	56	c	n	752.88	1	1000	100	0	0
085	5	62	?	P	d	552.17	NA	3	56	8	24	i	j	535.8	1	100	1000	0	0
085	5	63	?	N	f	419.39	NA	2	24	7	56	c	n	686.05	1	100	1000	0	0
085	5	64	?	P	d	318.79	NA	8	56	3	24	c	j	685.86	1	1000	1000	0	0
085	5	65	?	N	f	402.23	NA	8	24	2	56	i	j	869.18	1	1000	1000	0	0
085	6	1	?	N	f	1569.88	NA	7	56	3	24	c	j	1053.08	1	100	100	-1	0
085	6	2	?	N	f	1119.14	NA	4	24	9	56	c	n	903.09	1	100	100	0	0
085	6	3	?	N	f	268.59	NA	7	56	3	24	c	j	569.72	1	1000	100	0	0
085	6	4	?	N	f	234.76	NA	8	56	4	24	c	j	569.73	1	1000	1000	0	0
085	6	5	?	P	d	1002.73	NA	2	24	8	56	c	n	686.04	1	1000	1000	0	0
085	6	6	?	P	d	118.54	NA	7	56	3	24	c	j	835.7	1	1000	100	0	0
085	6	7	?	N	f	402.14	NA	4	24	8	56	c	n	534.8	1	100	100	0	0
085	6	8	?	N	f	535.67	NA	7	24	3	56	i	j	702.76	1	1000	100	0	0
085	6	9	?	P	d	218.55	NA	9	24	4	56	i	n	485.66	1	1000	1000	0	0
085	6	10	?	N	f	618.96	NA	2	56	9	24	i	n	752.31	1	100	100	0	0
085	6	11	?	P	d	484.91	NA	9	56	3	24	c	j	551.98	1	1000	100	0	0
085	6	12	?	P	d	268.26	NA	2	24	7	56	c	n	852.88	1	1000	100	0	0
085	6	13	?	N	f	352.31	NA	8	24	4	56	i	j	1787.58	1	1000	100	0	0
085	6	14	?	N	f	1720.36	NA	2	56	8	24	i	n	1019.38	1	100	100	0	0
085	6	15	?	N	f	368.7	NA	4	24	9	56	c	n	669.3	1	1000	1000	0	0
085	6	16	?	P	d	835.62	NA	3	24	9	56	c	n	485.69	1	1000	1000	0	0
085	6	17	?	P	d	569.32	NA	7	24	4	56	i	j	702.69	0	100	1000	0	0
085	6	18	?	P	d	352.71	NA	7	24	3	56	i	n	1218.94	1	100	100	0	1
085	6	19	?	P	d	402.37	NA	8	24	2	56	i	n	2036.09	1	1000	100	0	0
085	6	20	?	P	d	352.13	NA	4	56	7	24	i	j	1252.5	1	100	100	0	0
085	6	21	?	N	f	452.18	NA	8	56	3	24	c	j	602.76	1	1000	1000	0	0
085	6	22	?	N	f	585.63	NA	4	24	7	56	c	n	2454.43	1	1000	100	0	0
085	6	23	?	N	f	168.55	NA	7	56	3	24	c	j	569.25	1	1000	1000	0	0
085	6	24	?	P	d	468.19	NA	8	24	2	56	i	n	1036.34	1	100	1000	0	0
085	6	25	?	N	f	352.26	NA	9	24	4	56	i	j	735.54	1	100	100	0	0
085	6	26	?	P	d	418.85	NA	2	56	8	24	i	j	1170.0	1	100	100	0	0
085	6	27	?	P	d	736.33	NA	7	24	4	56	i	n	702.41	1	100	100	0	0
085	6	28	?	P	d	368.93	NA	3	56	8	24	i	j	752.78	1	100	1000	0	0
085	6	29	?	N	f	468.38	NA	4	24	8	56	c	n	468.9	1	1000	1000	0	0
085	6	30	?	N	f	852.49	NA	7	56	3	24	c	j	602.23	1	1000	100	0	0
085	6	31	?	N	f	435.93	NA	8	24	2	56	i	j	1303.15	1	1000	100	0	0
085	6	32	?	P	d	435.54	NA	8	24	4	56	i	n	936.02	1	1000	1000	0	0
085	6	33	?	N	f	418.51	NA	8	56	2	24	c	j	586.44	1	1000	1000	0	0
085	6	34	?	P	d	418.68	NA	3	56	7	24	i	j	2354.63	1	1000	100	0	0
085	6	35	?	P	d	452.38	NA	7	56	2	24	c	j	1202.21	1	100	100	0	0
085	6	36	?	N	f	201.78	NA	4	56	7	24	i	n	1086.67	1	1000	100	0	0
085	6	37	?	N	f	1886.18	NA	7	56	2	24	c	j	1269.45	1	100	100	0	0
085	6	38	?	N	f	468.4	NA	3	56	8	24	i	n	852.25	1	1000	1000	0	0
085	6	39	?	N	f	885.75	NA	8	56	4	24	c	j	635.42	1	100	100	0	0
085	6	40	?	P	d	502.23	NA	9	56	3	24	c	j	936.42	1	100	1000	0	0
085	6	41	?	P	d	151.74	NA	2	56	7	24	i	n	919.4	0	1000	1000	0	0
085	6	42	?	N	f	702.41	NA	8	56	4	24	c	j	1719.56	1	100	100	0	1
085	6	43	?	P	d	584.47	NA	2	56	8	24	i	j	1103.34	1	100	1000	0	0
085	6	44	?	P	d	284.65	NA	7	24	4	56	i	n	1253.2	1	1000	1000	0	0
085	6	45	?	N	f	435.87	NA	3	24	8	56	c	n	1120.13	1	100	1000	0	0
085	6	46	?	N	f	502.25	NA	9	24	4	56	i	j	1236.38	1	1000	1000	0	0
085	6	47	?	N	f	735.68	NA	3	24	7	56	c	n	786.55	1	100	1000	0	0
085	6	48	?	N	f	301.98	NA	9	56	4	24	c	j	669.32	1	100	1000	0	0
085	6	49	?	P	d	419.87	NA	7	24	3	56	i	n	1053.05	1	100	1000	0	0
085	6	50	?	P	d	284.95	NA	2	56	8	24	i	j	919.56	1	100	1000	0	0
085	6	51	?	P	d	352.14	NA	3	24	7	56	c	n	635.2	1	1000	100	0	0
085	6	52	?	N	f	418.84	NA	7	56	2	24	c	j	485.28	1	100	1000	0	0
085	6	53	?	P	d	335.6	NA	9	24	4	56	i	n	1253.57	1	1000	100	0	0
085	6	54	?	N	f	350.55	NA	9	56	2	24	c	j	636.18	1	100	1000	0	0
085	6	55	?	N	f	568.95	NA	9	24	4	56	i	j	719.4	1	100	1000	0	0
085	6	56	?	N	f	335.41	NA	3	24	9	56	c	n	786.18	1	100	1000	0	0
085	6	57	?	P	d	501.44	NA	2	24	8	56	c	n	1987.42	1	1000	100	0	0
085	6	58	?	P	d	351.77	NA	8	24	4	56	i	n	1620.47	1	100	1000	0	0
085	6	59	?	N	f	552.29	NA	9	24	2	56	i	j	552.52	1	1000	1000	0	0
085	6	60	?	N	f	335.0	NA	3	56	9	24	i	n	602.42	1	1000	100	0	0
085	6	61	?	N	f	402.16	NA	4	24	9	56	c	n	602.52	1	100	1000	0	0
085	6	62	?	P	d	301.92	NA	3	56	8	24	i	j	568.29	1	1000	1000	0	0
085	6	63	?	P	d	368.22	NA	4	24	9	56	c	n	685.86	1	100	100	0	0
085	6	64	?	P	d	369.01	NA	2	56	8	24	i	j	568.49	1	100	100	0	0
085	6	65	?	N	f	368.01	NA	3	24	8	56	c	n	718.24	1	100	100	0	0
