subj	block	trial	task_cue	task	choice_resp	choiceRT	choice_acc	topnum	topsize	botnum	botsize	cong	task_resp	taskRT	task_acc	RSI	CSI	altRep	E1
091	1	1	?	N	f	1320.2	NA	8	24	2	56	i	j	602.12	1	100	100	-1	0
091	1	2	?	P	d	969.16	NA	7	24	4	56	i	n	801.21	1	100	1000	0	0
091	1	3	?	P	d	552.33	NA	8	56	3	24	c	j	535.67	1	1000	1000	0	0
091	1	4	?	N	f	1169.8	NA	7	24	4	56	i	j	1002.93	1	100	100	0	0
091	1	5	?	N	f	502.25	NA	3	56	9	24	i	n	2204.34	1	1000	100	0	0
091	1	6	?	P	d	2404.32	NA	8	56	4	24	c	j	835.82	1	1000	100	0	0
091	1	7	?	N	f	1103.31	NA	7	24	3	56	i	j	602.43	1	100	1000	0	0
091	1	8	?	N	f	569.16	NA	7	56	2	24	c	j	585.62	1	100	1000	0	0
091	1	9	?	P	d	5091.23	NA	7	24	3	56	i	n	1736.81	1	1000	1000	0	0
091	1	10	?	N	f	1520.01	NA	4	56	7	24	i	n	1069.64	1	100	100	0	0
091	1	11	?	N	f	552.2	NA	3	24	8	56	c	n	552.08	1	100	1000	0	0
091	1	12	?	N	f	1069.64	NA	2	56	7	24	i	n	736.25	1	1000	1000	0	0
091	1	13	?	P	d	451.94	NA	3	24	8	56	c	n	686.06	1	100	1000	0	0
091	1	14	?	P	d	669.36	NA	8	56	2	24	c	j	2004.12	1	1000	1000	0	0
091	1	15	?	N	f	568.81	NA	9	24	4	56	i	j	803.39	1	100	1000	0	0
091	1	16	?	P	d	100.74	NA	3	56	9	24	i	n	1703.56	0	1000	1000	0	0
091	1	17	?	N	f	1603.7	NA	2	56	9	24	i	n	669.34	1	100	1000	0	1
091	1	18	?	N	f	401.66	NA	3	56	8	24	i	j	1802.61	0	100	100	0	0
091	1	19	?	P	d	2738.16	NA	2	56	7	24	i	j	969.56	1	1000	100	0	1
091	1	20	?	P	d	902.62	NA	4	24	8	56	c	n	1253.66	1	1000	100	0	0
091	1	21	?	P	d	418.42	NA	9	24	2	56	i	n	1168.86	1	100	100	0	0
091	1	22	?	N	f	335.56	NA	9	56	3	24	c	j	853.27	1	100	100	0	0
091	1	23	?	N	f	402.37	NA	4	24	8	56	c	n	1319.61	1	100	1000	0	0
091	1	24	?	N	f	519.14	NA	9	56	3	24	c	j	1319.38	1	100	1000	0	0
091	1	25	?	N	f	2187.64	NA	4	24	7	56	c	n	769.31	1	1000	100	0	0
091	1	26	?	P	d	767.98	NA	3	56	7	24	i	j	902.57	1	100	100	0	0
091	1	27	?	P	d	552.49	NA	4	56	9	24	i	j	802.71	1	100	100	0	0
091	1	28	?	P	d	936.33	NA	2	24	9	56	c	n	785.22	1	100	1000	0	0
091	1	29	?	N	f	1003.01	NA	3	24	8	56	c	n	1136.47	1	1000	1000	0	0
091	1	30	?	N	f	502.99	NA	7	56	2	24	c	j	1035.57	1	100	100	0	0
091	1	31	?	P	d	1353.42	NA	4	24	7	56	c	n	835.96	1	1000	1000	0	0
091	1	32	?	N	f	218.14	NA	9	24	3	56	i	j	919.37	1	1000	100	0	0
091	1	33	?	P	d	884.73	NA	2	56	8	24	i	j	1586.81	1	100	100	0	0
091	1	34	?	P	d	168.33	NA	7	24	4	56	i	n	1319.52	1	1000	1000	0	0
091	1	35	?	N	f	568.54	NA	3	56	9	24	i	n	685.63	1	100	100	0	0
091	1	36	?	P	d	2203.84	NA	8	56	2	24	c	j	952.8	1	1000	100	0	0
091	1	37	?	P	d	869.48	NA	9	56	3	24	c	j	701.81	1	1000	100	0	0
091	1	38	?	N	f	503.0	NA	9	56	4	24	c	j	635.71	1	100	100	0	0
091	1	39	?	N	f	619.23	NA	2	24	9	56	c	n	886.42	1	100	100	0	0
091	1	40	?	P	d	1285.18	NA	4	24	9	56	c	n	1069.72	1	1000	100	0	0
091	1	41	?	P	d	936.04	NA	9	56	3	24	c	j	686.21	1	1000	100	0	0
091	1	42	?	N	f	652.83	NA	2	24	7	56	c	n	769.01	1	100	100	0	0
091	1	43	?	N	f	802.42	NA	3	24	7	56	c	n	886.27	1	1000	1000	0	0
091	1	44	?	P	d	601.63	NA	7	24	2	56	i	n	919.48	1	100	1000	0	0
091	1	45	?	P	d	435.79	NA	9	24	3	56	i	n	718.19	1	1000	1000	0	0
091	1	46	?	N	f	902.76	NA	2	24	8	56	c	n	719.55	1	1000	1000	0	0
091	1	47	?	N	f	585.6	NA	9	56	4	24	c	j	602.44	1	1000	1000	0	0
091	1	48	?	P	d	135.49	NA	9	24	3	56	i	n	1002.16	1	1000	100	0	0
091	1	49	?	P	d	786.04	NA	4	56	9	24	i	j	719.16	1	1000	1000	0	0
091	1	50	?	N	f	351.85	NA	8	56	3	24	c	j	751.78	1	100	1000	0	0
091	1	51	?	N	f	3038.58	NA	9	24	4	56	i	j	1084.96	1	1000	1000	0	0
091	1	52	?	N	f	902.54	NA	3	56	8	24	i	n	753.36	1	100	1000	0	0
091	1	53	?	P	d	2771.35	NA	4	24	7	56	c	n	902.81	1	1000	100	0	0
091	1	54	?	P	d	552.51	NA	3	24	8	56	c	n	652.34	1	100	100	0	0
091	1	55	?	N	f	1804.07	NA	4	56	9	24	i	n	1319.75	1	1000	100	0	0
091	1	56	?	P	d	670.06	NA	3	56	8	24	i	j	2204.23	1	100	1000	0	0
091	1	57	?	P	d	702.29	NA	2	56	8	24	i	j	618.86	1	1000	1000	0	0
091	1	58	?	N	f	702.76	NA	7	24	3	56	i	j	2037.15	1	1000	100	0	0
091	1	59	?	N	f	669.11	NA	8	56	4	24	c	j	752.54	1	100	100	0	0
091	1	60	?	P	d	351.73	NA	3	24	7	56	c	n	1019.58	1	100	100	0	0
091	1	61	?	P	d	602.42	NA	2	56	7	24	i	j	1486.85	1	100	1000	0	0
091	1	62	?	P	d	1769.63	NA	8	24	3	56	i	n	868.48	1	1000	100	0	0
091	1	63	?	N	f	502.14	NA	9	56	2	24	c	j	986.3	1	1000	1000	0	0
091	1	64	?	P	d	368.18	NA	3	56	8	24	i	j	1252.45	1	1000	100	0	0
091	1	65	?	N	f	702.53	NA	8	56	4	24	c	j	1019.49	1	100	1000	0	0
091	2	1	?	P	d	6809.35	NA	9	56	2	24	c	j	1637.78	1	1000	100	-1	0
091	2	2	?	P	d	85.35	NA	3	24	8	56	c	n	886.32	1	1000	1000	0	0
091	2	3	?	N	f	786.06	NA	2	56	8	24	i	n	669.68	1	100	1000	0	0
091	2	4	?	P	d	535.51	NA	3	56	9	24	i	j	2455.25	1	1000	1000	0	0
091	2	5	?	N	f	1286.62	NA	7	24	2	56	i	j	969.06	1	100	1000	0	0
091	2	6	?	P	d	2988.44	NA	7	24	4	56	i	n	735.45	1	1000	1000	0	0
091	2	7	?	N	f	1804.1	NA	8	24	3	56	i	j	902.56	1	1000	100	0	0
091	2	8	?	N	f	33.85	NA	8	24	4	56	i	j	785.95	1	1000	100	0	0
091	2	9	?	P	d	735.9	NA	3	56	7	24	i	j	519.05	1	100	100	0	0
091	2	10	?	P	d	1002.73	NA	7	24	4	56	i	n	902.65	1	1000	1000	0	0
091	2	11	?	N	f	67.14	NA	9	24	2	56	i	j	702.72	1	1000	1000	0	0
091	2	12	?	N	f	1503.08	NA	3	56	7	24	i	n	1036.32	1	1000	100	0	0
091	2	13	?	P	d	903.21	NA	2	24	7	56	c	n	1386.69	1	1000	100	0	0
091	2	14	?	P	d	451.71	NA	8	24	3	56	i	n	1236.25	1	1000	100	0	0
091	2	15	?	P	d	418.95	NA	2	56	8	24	i	n	835.79	0	100	100	0	0
091	2	16	?	N	f	3022.17	NA	9	56	4	24	c	j	1086.0	1	1000	100	0	1
091	2	17	?	N	f	502.26	NA	2	24	8	56	c	n	936.12	1	100	1000	0	0
091	2	18	?	P	d	802.61	NA	4	24	8	56	c	n	901.33	1	1000	100	0	0
091	2	19	?	P	d	885.95	NA	9	24	2	56	i	n	919.73	1	1000	100	0	0
091	2	20	?	N	f	368.61	NA	7	56	4	24	c	j	1103.13	1	1000	1000	0	0
091	2	21	?	P	d	368.41	NA	3	24	7	56	c	n	1119.56	1	1000	100	0	0
091	2	22	?	N	f	418.84	NA	2	56	7	24	i	n	1069.75	1	100	1000	0	0
091	2	23	?	P	d	769.23	NA	4	24	8	56	c	n	686.43	1	1000	100	0	0
091	2	24	?	N	f	419.03	NA	9	24	2	56	i	j	1085.83	1	100	1000	0	0
091	2	25	?	P	d	636.14	NA	7	24	4	56	i	n	1837.28	1	100	100	0	0
091	2	26	?	P	d	1120.02	NA	7	56	2	24	c	j	502.65	1	1000	1000	0	0
091	2	27	?	P	d	418.93	NA	4	24	9	56	c	n	485.61	1	1000	1000	0	0
091	2	28	?	P	d	352.21	NA	8	24	3	56	i	n	568.82	1	100	1000	0	0
091	2	29	?	P	d	502.38	NA	7	24	2	56	i	n	635.86	1	1000	1000	0	0
091	2	30	?	N	f	652.01	NA	9	24	4	56	i	j	869.27	1	1000	100	0	0
091	2	31	?	N	f	652.2	NA	2	24	9	56	c	n	1002.67	1	100	1000	0	0
091	2	32	?	N	f	435.59	NA	8	56	3	24	c	j	735.85	1	100	1000	0	0
091	2	33	?	N	f	1.84	NA	2	24	8	56	c	n	1403.49	1	1000	1000	0	0
091	2	34	?	P	d	819.12	NA	8	56	4	24	c	j	468.79	1	1000	1000	0	0
091	2	35	?	N	f	619.04	NA	9	24	3	56	i	j	952.7	1	100	100	0	0
091	2	36	?	P	d	652.06	NA	9	56	2	24	c	j	1603.48	1	1000	100	0	0
091	2	37	?	N	f	902.17	NA	3	24	9	56	c	n	985.57	1	100	1000	0	0
091	2	38	?	P	d	5775.06	NA	7	24	4	56	i	n	1269.64	1	1000	1000	0	0
091	2	39	?	P	d	635.78	NA	9	56	2	24	c	j	1003.17	1	100	100	0	0
091	2	40	?	P	d	618.86	NA	9	56	3	24	c	j	452.15	1	100	1000	0	0
091	2	41	?	N	f	484.66	NA	2	56	9	24	i	n	718.94	1	100	100	0	0
091	2	42	?	N	f	435.63	NA	8	56	4	24	c	j	803.04	1	100	100	0	0
091	2	43	?	P	d	602.4	NA	9	56	3	24	c	j	618.96	1	1000	100	0	0
091	2	44	?	N	f	585.89	NA	4	56	7	24	i	n	1336.69	1	100	1000	0	0
091	2	45	?	P	d	468.32	NA	7	56	2	24	c	j	452.69	1	1000	1000	0	0
091	2	46	?	N	f	536.02	NA	3	24	8	56	c	n	786.37	1	100	1000	0	0
091	2	47	?	P	d	168.71	NA	2	56	9	24	i	j	1403.35	1	1000	1000	0	0
091	2	48	?	P	d	1286.57	NA	9	56	4	24	c	j	919.18	1	1000	100	0	0
091	2	49	?	N	f	619.29	NA	3	56	9	24	i	n	1487.0	1	1000	100	0	0
091	2	50	?	N	f	485.95	NA	9	56	2	24	c	j	1135.91	1	100	1000	0	0
091	2	51	?	N	f	619.62	NA	9	24	4	56	i	j	986.67	1	1000	100	0	0
091	2	52	?	N	f	919.43	NA	2	56	9	24	i	n	835.98	1	100	100	0	0
091	2	53	?	N	f	368.75	NA	3	24	7	56	c	n	919.49	1	100	100	0	0
091	2	54	?	N	f	402.41	NA	2	24	9	56	c	n	902.12	1	100	100	0	0
091	2	55	?	N	f	385.13	NA	3	24	8	56	c	n	652.63	1	100	100	0	0
091	2	56	?	P	d	585.47	NA	4	56	9	24	i	j	1001.58	1	1000	1000	0	0
091	2	57	?	P	d	401.68	NA	7	56	3	24	c	j	669.09	1	100	100	0	0
091	2	58	?	P	d	368.93	NA	2	56	7	24	i	j	1002.15	1	100	100	0	0
091	2	59	?	P	d	335.8	NA	3	56	7	24	i	j	785.61	1	100	1000	0	0
091	2	60	?	P	d	352.17	NA	2	56	9	24	i	j	752.53	1	100	1000	0	0
091	2	61	?	N	f	519.12	NA	4	56	8	24	i	n	1369.77	1	100	100	0	0
091	2	62	?	N	f	352.07	NA	3	24	7	56	c	n	786.25	1	100	100	0	0
091	2	63	?	P	d	1169.85	NA	8	56	2	24	c	j	835.95	1	100	100	0	0
091	2	64	?	N	f	402.3	NA	8	56	4	24	c	j	1219.64	1	100	1000	0	0
091	2	65	?	N	f	2437.8	NA	3	24	7	56	c	n	652.46	1	1000	1000	0	0
091	3	1	?	P	d	2437.22	NA	8	56	3	24	c	j	1403.8	1	100	1000	-1	0
091	3	2	?	P	d	2321.2	NA	8	56	2	24	c	j	1153.08	1	100	1000	0	0
091	3	3	?	N	f	1536.78	NA	3	56	9	24	i	n	1553.44	1	1000	100	0	0
091	3	4	?	P	d	235.07	NA	2	56	7	24	i	j	1086.32	1	1000	1000	0	0
091	3	5	?	P	d	452.3	NA	7	24	3	56	i	n	818.92	1	100	100	0	0
091	3	6	?	N	f	485.42	NA	4	24	7	56	c	n	1352.97	1	100	1000	0	0
091	3	7	?	N	f	1168.36	NA	2	56	8	24	i	n	868.86	1	1000	100	0	0
091	3	8	?	P	d	551.78	NA	4	56	7	24	i	j	1069.87	1	100	100	0	0
091	3	9	?	N	f	168.92	NA	2	24	8	56	c	n	935.4	1	1000	1000	0	0
091	3	10	?	N	f	1019.66	NA	8	56	3	24	c	j	869.43	1	1000	1000	0	0
091	3	11	?	N	f	302.22	NA	4	24	8	56	c	n	502.32	1	100	1000	0	0
091	3	12	?	N	f	669.29	NA	8	24	3	56	i	j	635.59	1	1000	1000	0	0
091	3	13	?	P	d	502.06	NA	8	24	2	56	i	n	519.15	1	100	1000	0	0
091	3	14	?	P	d	3188.59	NA	4	56	8	24	i	j	719.33	1	1000	100	0	0
091	3	15	?	N	f	552.52	NA	9	56	3	24	c	j	769.27	1	100	100	0	0
091	3	16	?	N	f	352.2	NA	4	56	8	24	i	n	902.9	1	1000	1000	0	0
091	3	17	?	N	f	769.12	NA	9	24	3	56	i	j	652.89	1	100	1000	0	0
091	3	18	?	P	d	201.92	NA	2	24	8	56	c	n	869.32	1	1000	1000	0	0
091	3	19	?	N	f	502.44	NA	9	24	4	56	i	j	719.01	1	100	100	0	0
091	3	20	?	P	d	751.86	NA	9	24	2	56	i	n	1253.24	1	100	100	0	0
091	3	21	?	P	d	752.28	NA	3	24	8	56	c	n	452.37	1	1000	1000	0	0
091	3	22	?	N	f	185.59	NA	9	24	4	56	i	j	636.08	1	1000	1000	0	0
091	3	23	?	P	d	3405.75	NA	3	24	7	56	c	n	551.96	1	1000	100	0	0
091	3	24	?	P	d	568.96	NA	2	24	8	56	c	n	469.23	1	100	100	0	0
091	3	25	?	N	f	485.97	NA	7	56	3	24	c	j	668.25	1	100	100	0	0
091	3	26	?	N	f	568.56	NA	4	56	7	24	i	n	1002.81	1	100	1000	0	0
091	3	27	?	P	d	869.54	NA	8	56	3	24	c	j	768.96	1	1000	100	0	0
091	3	28	?	N	f	35.13	NA	7	24	4	56	i	j	786.43	1	1000	100	0	0
091	3	29	?	P	d	552.43	NA	8	56	3	24	c	j	2154.14	1	100	1000	0	0
091	3	30	?	N	f	534.9	NA	9	56	4	24	c	j	985.21	1	100	1000	0	0
091	3	31	?	P	d	1152.92	NA	8	24	3	56	i	n	819.45	1	1000	100	0	0
091	3	32	?	N	f	1136.46	NA	4	24	8	56	c	n	685.68	1	1000	100	0	0
091	3	33	?	P	d	585.23	NA	8	24	3	56	i	n	1119.85	1	100	100	0	0
091	3	34	?	N	f	586.01	NA	4	24	7	56	c	n	885.88	1	100	100	0	0
091	3	35	?	P	d	318.2	NA	8	56	2	24	c	j	1153.26	1	100	100	0	0
091	3	36	?	N	f	552.38	NA	3	24	7	56	c	n	869.51	1	100	1000	0	0
091	3	37	?	P	d	435.43	NA	2	24	7	56	c	n	1286.7	1	100	100	0	0
091	3	38	?	N	f	352.42	NA	4	56	9	24	i	n	903.28	1	100	100	0	0
091	3	39	?	P	d	552.76	NA	7	24	3	56	i	n	1253.09	1	100	1000	0	0
091	3	40	?	N	f	417.58	NA	7	24	4	56	i	j	1736.98	1	100	1000	0	0
091	3	41	?	N	f	619.5	NA	8	56	3	24	c	j	936.03	1	1000	100	0	0
091	3	42	?	N	f	385.53	NA	2	24	9	56	c	n	935.56	1	1000	100	0	0
091	3	43	?	P	d	769.2	NA	9	24	4	56	i	n	1003.01	1	100	1000	0	0
091	3	44	?	P	d	219.15	NA	3	56	8	24	i	j	1470.12	1	100	1000	0	0
091	3	45	?	N	f	535.55	NA	8	24	2	56	i	j	1636.71	1	100	1000	0	0
091	3	46	?	P	d	602.46	NA	3	56	7	24	i	j	1019.72	1	1000	100	0	0
091	3	47	?	N	f	452.35	NA	9	56	2	24	c	j	985.87	1	1000	100	0	0
091	3	48	?	N	f	802.65	NA	3	24	9	56	c	n	1335.98	1	100	100	0	0
091	3	49	?	P	d	1002.94	NA	7	56	4	24	c	j	701.92	1	1000	1000	0	0
091	3	50	?	P	d	452.09	NA	3	56	9	24	i	j	719.82	1	100	100	0	0
091	3	51	?	P	d	1553.31	NA	2	24	7	56	c	n	769.13	1	1000	100	0	0
091	3	52	?	N	f	1403.5	NA	4	56	7	24	i	n	886.55	1	1000	100	0	0
091	3	53	?	P	d	1236.47	NA	8	56	3	24	c	j	602.75	1	100	1000	0	0
091	3	54	?	N	f	569.13	NA	9	56	4	24	c	j	769.51	1	100	100	0	0
091	3	55	?	P	d	5273.6	NA	3	56	7	24	i	j	803.16	1	1000	1000	0	0
091	3	56	?	N	f	552.11	NA	9	56	2	24	c	j	952.21	1	1000	100	0	0
091	3	57	?	N	f	585.85	NA	4	56	8	24	i	n	1102.82	1	1000	1000	0	0
091	3	58	?	N	f	485.72	NA	3	56	7	24	i	n	1386.79	1	1000	1000	0	0
091	3	59	?	P	d	702.7	NA	7	24	2	56	i	n	702.12	1	1000	1000	0	0
091	3	60	?	P	d	418.07	NA	3	24	7	56	c	n	835.98	1	1000	1000	0	0
091	3	61	?	P	d	335.77	NA	9	56	2	24	c	j	868.59	1	1000	1000	0	0
091	3	62	?	N	f	819.27	NA	4	24	7	56	c	n	1003.28	1	100	1000	0	0
091	3	63	?	N	f	3072.03	NA	9	24	2	56	i	j	819.34	1	100	100	0	0
091	3	64	?	N	f	3338.16	NA	9	24	4	56	i	j	986.28	1	1000	100	0	0
091	3	65	?	P	d	151.5	NA	8	56	2	24	c	j	635.77	1	1000	1000	0	0
091	4	1	?	P	d	3555.93	NA	3	24	7	56	c	n	951.01	1	1000	1000	-1	0
091	4	2	?	N	f	502.19	NA	9	56	2	24	c	j	584.81	1	100	1000	0	0
091	4	3	?	P	d	986.24	NA	9	24	3	56	i	n	669.08	1	1000	100	0	0
091	4	4	?	P	d	751.12	NA	9	24	2	56	i	n	502.22	1	100	1000	0	0
091	4	5	?	P	d	418.76	NA	7	24	4	56	i	n	419.24	1	1000	100	0	0
091	4	6	?	N	f	502.58	NA	2	24	7	56	c	n	618.69	1	100	100	0	0
091	4	7	?	N	f	418.57	NA	3	24	8	56	c	n	502.6	1	100	100	0	0
091	4	8	?	N	f	819.46	NA	8	56	2	24	c	j	969.48	1	1000	1000	0	0
091	4	9	?	P	d	686.02	NA	9	24	3	56	i	n	703.11	1	100	100	0	0
091	4	10	?	N	f	1101.6	NA	2	56	8	24	i	n	952.85	1	100	1000	0	0
091	4	11	?	P	d	669.89	NA	4	56	8	24	i	j	1853.7	1	1000	1000	0	0
091	4	12	?	P	d	1319.94	NA	8	56	2	24	c	j	702.53	1	1000	100	0	0
091	4	13	?	N	f	685.78	NA	7	56	3	24	c	j	902.94	1	100	100	0	0
091	4	14	?	P	d	785.99	NA	8	56	2	24	c	j	1003.23	1	100	100	0	0
091	4	15	?	N	f	1220.1	NA	9	24	3	56	i	j	719.16	1	1000	100	0	0
091	4	16	?	P	d	851.26	NA	2	24	9	56	c	n	852.95	1	100	1000	0	0
091	4	17	?	N	f	735.85	NA	7	56	4	24	c	j	635.28	1	100	1000	0	0
091	4	18	?	P	d	1703.72	NA	3	24	8	56	c	n	585.93	1	1000	1000	0	0
091	4	19	?	P	d	51.73	NA	2	56	9	24	i	j	718.98	1	1000	100	0	0
091	4	20	?	N	f	886.02	NA	7	56	3	24	c	j	919.43	1	1000	1000	0	0
091	4	21	?	N	f	602.59	NA	2	56	7	24	i	n	769.31	1	100	100	0	0
091	4	22	?	N	f	1.73	NA	7	56	4	24	c	j	835.99	1	1000	100	0	0
091	4	23	?	N	f	652.5	NA	2	56	7	24	i	n	736.34	1	1000	100	0	0
091	4	24	?	P	d	485.59	NA	3	24	7	56	c	n	519.18	1	1000	1000	0	0
091	4	25	?	N	f	318.94	NA	2	24	8	56	c	n	1487.05	1	1000	1000	0	0
091	4	26	?	P	d	419.41	NA	9	24	4	56	i	n	819.66	1	100	100	0	0
091	4	27	?	P	d	986.01	NA	9	24	2	56	i	n	769.52	1	100	100	0	0
091	4	28	?	N	f	519.04	NA	8	24	3	56	i	j	619.0	1	100	100	0	0
091	4	29	?	P	d	651.14	NA	4	56	7	24	i	j	602.79	1	1000	1000	0	0
091	4	30	?	N	f	402.57	NA	8	56	3	24	c	j	702.69	1	1000	1000	0	0
091	4	31	?	P	d	785.9	NA	8	56	4	24	c	j	1653.81	1	100	1000	0	0
091	4	32	?	P	d	551.91	NA	2	56	9	24	i	j	1035.78	1	100	100	0	0
091	4	33	?	N	f	686.16	NA	7	56	4	24	c	j	752.85	1	100	1000	0	0
091	4	34	?	N	f	802.88	NA	2	56	7	24	i	n	736.03	1	1000	1000	0	0
091	4	35	?	P	d	2387.82	NA	7	56	3	24	c	j	1020.17	1	1000	1000	0	0
091	4	36	?	N	f	619.08	NA	8	24	2	56	i	j	619.22	1	100	1000	0	0
091	4	37	?	P	d	452.07	NA	3	24	7	56	c	n	1870.59	1	100	1000	0	0
091	4	38	?	P	d	953.04	NA	4	24	9	56	c	n	852.46	1	100	100	0	0
091	4	39	?	P	d	585.88	NA	3	24	8	56	c	n	602.51	1	100	1000	0	0
091	4	40	?	N	f	635.94	NA	9	56	4	24	c	j	769.37	1	1000	100	0	0
091	4	41	?	N	f	1152.38	NA	2	56	9	24	i	n	1270.01	1	1000	100	0	0
091	4	42	?	P	d	518.79	NA	4	56	7	24	i	j	1252.85	1	100	100	0	0
091	4	43	?	P	d	786.22	NA	2	24	9	56	c	n	767.98	1	1000	100	0	0
091	4	44	?	N	f	1252.99	NA	4	24	9	56	c	n	835.86	1	1000	1000	0	0
091	4	45	?	P	d	502.04	NA	7	24	2	56	i	n	452.05	1	1000	1000	0	0
091	4	46	?	N	f	368.96	NA	8	56	3	24	c	j	835.92	1	1000	100	0	0
091	4	47	?	P	d	1069.7	NA	7	56	4	24	c	j	568.77	1	100	100	0	0
091	4	48	?	P	d	535.61	NA	9	24	2	56	i	n	452.12	1	1000	1000	0	0
091	4	49	?	N	f	502.76	NA	4	24	9	56	c	n	802.77	1	1000	100	0	0
091	4	50	?	N	f	735.45	NA	2	56	8	24	i	n	585.71	1	100	1000	0	0
091	4	51	?	P	d	301.72	NA	3	24	9	56	c	n	952.98	1	1000	100	0	0
091	4	52	?	N	f	367.58	NA	9	24	2	56	i	j	685.69	1	1000	1000	0	0
091	4	53	?	N	f	4039.67	NA	8	24	3	56	i	j	668.79	1	100	1000	0	0
091	4	54	?	N	f	2905.1	NA	7	24	4	56	i	j	468.85	1	100	1000	0	0
091	4	55	?	P	d	367.38	NA	2	24	9	56	c	n	802.57	1	1000	100	0	0
091	4	56	?	N	f	669.23	NA	3	56	7	24	i	n	768.74	1	1000	1000	0	0
091	4	57	?	P	d	1103.55	NA	7	24	2	56	i	n	685.17	1	100	1000	0	0
091	4	58	?	P	d	434.34	NA	4	56	7	24	i	j	1319.92	1	1000	100	0	0
091	4	59	?	P	d	2504.63	NA	7	56	3	24	c	j	735.91	1	100	100	0	0
091	4	60	?	N	f	2304.61	NA	2	24	8	56	c	n	869.67	1	100	100	0	0
091	4	61	?	P	d	419.82	NA	3	56	8	24	i	j	701.92	1	1000	1000	0	0
091	4	62	?	N	f	685.87	NA	9	24	4	56	i	j	635.97	1	100	100	0	0
091	4	63	?	N	f	435.5	NA	9	24	2	56	i	j	652.83	1	1000	100	0	0
091	4	64	?	P	d	719.62	NA	4	24	8	56	c	n	769.49	1	100	1000	0	0
091	4	65	?	P	d	702.57	NA	3	56	8	24	i	j	469.26	1	100	1000	0	0
091	5	1	?	P	d	1953.82	NA	2	56	8	24	i	j	752.46	1	1000	100	-1	0
091	5	2	?	P	d	302.5	NA	3	56	7	24	i	j	568.79	1	1000	100	0	0
091	5	3	?	N	f	335.33	NA	2	24	8	56	c	n	836.41	1	1000	100	0	0
091	5	4	?	N	f	502.48	NA	8	56	3	24	c	j	519.14	1	100	100	0	0
091	5	5	?	P	d	352.29	NA	8	24	2	56	i	n	667.74	1	1000	100	0	0
091	5	6	?	N	f	401.31	NA	8	24	3	56	i	j	835.27	1	1000	100	0	0
091	5	7	?	N	f	1987.75	NA	4	24	9	56	c	n	752.9	1	100	1000	0	0
091	5	8	?	N	f	635.25	NA	2	56	9	24	i	n	634.6	1	1000	1000	0	0
091	5	9	?	P	d	518.44	NA	7	24	4	56	i	n	636.21	1	1000	100	0	0
091	5	10	?	P	d	1168.89	NA	8	24	2	56	i	n	602.09	1	100	100	0	0
091	5	11	?	N	f	1136.8	NA	4	56	9	24	i	n	552.0	1	100	1000	0	0
091	5	12	?	N	f	618.61	NA	9	24	3	56	i	j	751.64	1	100	1000	0	0
091	5	13	?	P	d	385.83	NA	7	56	2	24	c	j	552.8	1	1000	100	0	0
091	5	14	?	P	d	602.46	NA	9	24	4	56	i	n	636.11	1	100	1000	0	0
091	5	15	?	P	d	2437.5	NA	2	24	9	56	c	n	1119.7	1	1000	1000	0	0
091	5	16	?	P	d	519.12	NA	4	24	8	56	c	n	702.6	1	100	100	0	0
091	5	17	?	N	f	735.66	NA	9	56	2	24	c	j	568.56	1	1000	100	0	0
091	5	18	?	N	f	486.13	NA	9	24	3	56	i	j	986.5	1	1000	1000	0	0
091	5	19	?	P	d	419.37	NA	9	56	4	24	c	j	918.21	1	1000	1000	0	0
091	5	20	?	P	d	319.0	NA	2	24	7	56	c	n	736.51	1	1000	1000	0	0
091	5	21	?	N	f	335.81	NA	4	24	8	56	c	n	719.21	1	1000	1000	0	0
091	5	22	?	P	d	2704.82	NA	7	56	2	24	c	j	735.81	1	100	100	0	0
091	5	23	?	N	f	502.47	NA	8	24	3	56	i	j	802.8	1	1000	1000	0	0
091	5	24	?	P	d	1370.09	NA	9	24	4	56	i	n	1119.38	1	100	1000	0	0
091	5	25	?	N	f	419.03	NA	2	24	8	56	c	n	568.9	1	1000	100	0	0
091	5	26	?	N	f	735.78	NA	7	56	4	24	c	j	735.41	1	100	1000	0	0
091	5	27	?	N	f	1036.27	NA	9	24	3	56	i	j	534.82	1	100	1000	0	0
091	5	28	?	P	d	418.84	NA	8	56	4	24	c	j	568.64	1	1000	100	0	0
091	5	29	?	P	d	502.42	NA	3	56	9	24	i	j	803.07	1	1000	1000	0	0
091	5	30	?	P	d	769.34	NA	7	24	4	56	i	n	1169.92	1	100	100	0	0
091	5	31	?	N	f	769.47	NA	9	24	2	56	i	j	935.99	1	100	1000	0	0
091	5	32	?	P	d	118.35	NA	7	24	4	56	i	n	1703.4	1	1000	1000	0	0
091	5	33	?	P	d	753.23	NA	2	24	9	56	c	n	1135.3	1	1000	100	0	0
091	5	34	?	N	f	986.04	NA	7	56	4	24	c	j	1369.73	1	100	100	0	0
091	5	35	?	N	f	1103.18	NA	8	24	3	56	i	j	1053.25	1	1000	100	0	0
091	5	36	?	P	d	751.28	NA	4	24	7	56	c	n	969.4	1	100	100	0	0
091	5	37	?	N	f	702.19	NA	2	24	8	56	c	n	717.77	1	100	100	0	0
091	5	38	?	P	d	602.65	NA	7	56	4	24	c	j	1152.99	1	100	100	0	0
091	5	39	?	N	f	501.37	NA	2	56	7	24	i	n	885.82	1	100	1000	0	0
091	5	40	?	P	d	1904.02	NA	9	56	3	24	c	j	701.74	1	100	1000	0	0
091	5	41	?	N	f	686.08	NA	2	56	8	24	i	n	869.36	1	100	100	0	0
091	5	42	?	N	f	585.84	NA	4	56	9	24	i	n	1319.89	1	1000	1000	0	0
091	5	43	?	N	f	1319.49	NA	9	24	2	56	i	j	1386.7	1	100	100	0	0
091	5	44	?	P	d	2536.84	NA	9	24	4	56	i	n	1036.36	1	1000	1000	0	0
091	5	45	?	P	d	269.11	NA	3	24	7	56	c	n	935.35	1	1000	100	0	0
091	5	46	?	N	f	885.4	NA	2	56	8	24	i	n	836.21	1	1000	100	0	0
091	5	47	?	P	d	969.6	NA	3	24	7	56	c	n	485.7	1	100	1000	0	0
091	5	48	?	N	f	435.81	NA	7	24	2	56	i	j	802.77	1	1000	100	0	0
091	5	49	?	P	d	1587.06	NA	3	56	9	24	i	j	1420.33	1	100	100	0	0
091	5	50	?	P	d	535.91	NA	2	56	9	24	i	j	919.42	1	1000	1000	0	0
091	5	51	?	N	f	333.85	NA	4	24	9	56	c	n	2655.26	1	1000	1000	0	0
091	5	52	?	P	d	352.09	NA	7	56	3	24	c	j	469.05	1	1000	1000	0	0
091	5	53	?	N	f	1686.88	NA	7	24	4	56	i	n	701.31	0	100	100	0	0
091	5	54	?	P	d	968.84	NA	7	56	2	24	c	j	1703.13	1	100	1000	0	1
091	5	55	?	P	d	3121.98	NA	8	24	4	56	i	n	736.5	1	1000	100	0	0
091	5	56	?	P	d	652.23	NA	3	56	7	24	i	j	686.04	1	100	1000	0	0
091	5	57	?	N	f	402.17	NA	4	24	9	56	c	n	685.96	1	100	100	0	0
091	5	58	?	P	d	836.34	NA	9	24	2	56	i	n	585.44	1	100	100	0	0
091	5	59	?	N	f	435.6	NA	8	56	4	24	c	j	1169.49	1	1000	100	0	0
091	5	60	?	N	f	502.44	NA	7	56	2	24	c	j	819.22	1	100	1000	0	0
091	5	61	?	P	d	801.73	NA	4	24	9	56	c	n	535.37	1	100	1000	0	0
091	5	62	?	P	d	902.17	NA	2	56	8	24	i	j	703.01	1	100	100	0	0
091	5	63	?	P	d	719.47	NA	4	24	7	56	c	n	552.21	1	100	1000	0	0
091	5	64	?	P	d	1336.87	NA	9	56	2	24	c	j	535.73	1	1000	1000	0	0
091	5	65	?	N	f	802.94	NA	8	56	3	24	c	j	518.18	1	1000	1000	0	0
091	6	1	?	P	d	1052.8	NA	8	56	3	24	c	j	651.87	1	1000	100	-1	0
091	6	2	?	P	d	902.9	NA	8	56	4	24	c	j	585.75	1	1000	1000	0	0
091	6	3	?	N	f	751.66	NA	7	56	3	24	c	j	1571.01	1	100	100	0	0
091	6	4	?	N	f	502.22	NA	8	56	4	24	c	j	569.11	1	100	100	0	0
091	6	5	?	N	f	335.57	NA	3	24	7	56	c	n	602.77	1	1000	100	0	0
091	6	6	?	P	d	869.38	NA	4	56	8	24	i	j	1068.3	1	100	100	0	0
091	6	7	?	P	d	502.27	NA	2	56	7	24	i	j	635.6	1	100	100	0	0
091	6	8	?	N	f	351.9	NA	3	24	7	56	c	n	685.83	1	1000	100	0	0
091	6	9	?	P	d	536.01	NA	8	24	2	56	i	n	569.68	1	100	1000	0	0
091	6	10	?	N	f	18.54	NA	9	56	4	24	c	j	936.1	1	1000	100	0	0
091	6	11	?	P	d	919.48	NA	2	24	8	56	c	n	351.92	1	100	1000	0	0
091	6	12	?	P	d	1236.32	NA	7	56	4	24	c	j	685.93	1	100	100	0	0
091	6	13	?	P	d	235.69	NA	2	56	9	24	i	j	618.94	1	1000	1000	0	0
091	6	14	?	N	f	2020.79	NA	3	24	8	56	c	n	568.88	1	1000	100	0	0
091	6	15	?	P	d	201.82	NA	2	56	9	24	i	j	535.63	1	1000	1000	0	0
091	6	16	?	N	f	701.97	NA	4	56	9	24	i	n	1920.53	1	100	100	0	0
091	6	17	?	N	f	135.13	NA	9	24	3	56	i	j	485.63	1	1000	1000	0	0
091	6	18	?	P	d	118.65	NA	7	24	2	56	i	n	1270.22	1	1000	1000	0	0
091	6	19	?	P	d	268.43	NA	3	56	8	24	i	j	736.11	1	1000	100	0	0
091	6	20	?	N	f	953.2	NA	2	56	7	24	i	j	835.94	0	100	1000	0	0
091	6	21	?	N	f	852.92	NA	7	56	4	24	c	j	1003.45	1	100	1000	0	1
091	6	22	?	N	f	318.4	NA	9	24	2	56	i	j	1220.28	1	1000	1000	0	0
091	6	23	?	N	f	3241.58	NA	4	24	8	56	c	n	852.67	1	100	1000	0	0
091	6	24	?	N	f	735.97	NA	7	56	2	24	c	j	917.43	1	100	100	0	0
091	6	25	?	P	d	952.85	NA	8	24	4	56	i	n	1552.41	1	100	100	0	0
091	6	26	?	N	f	1269.89	NA	3	24	7	56	c	n	652.62	1	100	100	0	0
091	6	27	?	P	d	1120.06	NA	2	56	7	24	i	j	485.58	1	1000	100	0	0
091	6	28	?	P	d	501.74	NA	9	24	3	56	i	n	619.59	1	1000	100	0	0
091	6	29	?	N	f	386.06	NA	4	56	8	24	i	n	684.47	1	1000	100	0	0
091	6	30	?	N	f	1053.02	NA	3	24	7	56	c	n	535.77	1	100	100	0	0
091	6	31	?	P	d	585.54	NA	7	56	4	24	c	j	519.13	1	100	1000	0	0
091	6	32	?	P	d	702.65	NA	3	56	7	24	i	j	467.6	1	100	100	0	0
091	6	33	?	N	f	368.74	NA	7	56	4	24	c	j	602.3	1	1000	100	0	0
091	6	34	?	P	d	302.31	NA	8	56	2	24	c	j	752.08	1	1000	1000	0	0
091	6	35	?	N	f	569.02	NA	4	24	9	56	c	n	769.35	1	1000	1000	0	0
091	6	36	?	P	d	936.62	NA	2	56	9	24	i	j	1703.24	1	100	1000	0	0
091	6	37	?	P	d	402.5	NA	7	56	4	24	c	j	752.55	1	1000	100	0	0
091	6	38	?	N	f	719.1	NA	8	56	2	24	c	j	919.39	1	100	1000	0	0
091	6	39	?	P	d	1119.84	NA	4	24	9	56	c	n	852.42	1	100	100	0	0
091	6	40	?	N	f	452.11	NA	3	56	7	24	i	n	834.79	1	1000	100	0	0
091	6	41	?	N	f	402.3	NA	8	24	4	56	i	j	702.57	1	1000	100	0	0
091	6	42	?	N	f	352.18	NA	2	56	8	24	i	n	535.36	1	1000	100	0	0
091	6	43	?	P	d	635.67	NA	4	24	9	56	c	n	402.17	1	1000	1000	0	0
091	6	44	?	P	d	319.08	NA	7	56	2	24	c	j	819.65	1	1000	100	0	0
091	6	45	?	N	f	634.55	NA	3	56	7	24	i	n	1987.25	1	100	100	0	0
091	6	46	?	P	d	685.99	NA	8	56	2	24	c	j	585.8	1	100	1000	0	0
091	6	47	?	N	f	719.23	NA	7	24	3	56	i	j	618.97	1	100	100	0	0
091	6	48	?	P	d	736.05	NA	2	56	7	24	i	j	551.8	1	100	1000	0	0
091	6	49	?	P	d	635.93	NA	8	24	4	56	i	n	635.72	1	100	1000	0	0
091	6	50	?	P	d	550.92	NA	3	56	9	24	i	j	668.98	1	100	1000	0	0
091	6	51	?	N	f	569.1	NA	4	24	9	56	c	n	736.56	1	100	1000	0	0
091	6	52	?	N	f	268.86	NA	8	24	2	56	i	j	1002.99	1	1000	100	0	0
091	6	53	?	N	f	301.82	NA	3	24	7	56	c	n	853.08	1	1000	1000	0	0
091	6	54	?	P	d	886.97	NA	7	24	4	56	i	n	902.8	1	100	100	0	0
091	6	55	?	N	f	251.92	NA	3	24	7	56	c	n	719.44	1	1000	1000	0	0
091	6	56	?	P	d	802.81	NA	4	24	9	56	c	n	868.52	1	100	1000	0	0
091	6	57	?	P	d	302.48	NA	8	24	3	56	i	n	1219.96	1	1000	1000	0	0
091	6	58	?	N	f	335.47	NA	2	24	7	56	c	n	685.69	1	1000	100	0	0
091	6	59	?	P	d	652.6	NA	3	24	9	56	c	n	835.55	1	100	100	0	0
091	6	60	?	N	f	1202.76	NA	4	56	8	24	i	n	586.19	1	100	1000	0	0
091	6	61	?	P	d	652.54	NA	9	24	3	56	i	n	2771.08	1	1000	1000	0	0
091	6	62	?	P	d	602.82	NA	9	56	4	24	c	j	1537.06	1	1000	1000	0	0
091	6	63	?	N	f	735.63	NA	9	24	3	56	i	j	835.82	1	100	1000	0	0
091	6	64	?	N	f	302.28	NA	4	56	8	24	i	n	718.94	1	1000	1000	0	0
091	6	65	?	P	d	3305.44	NA	8	56	3	24	c	j	568.79	1	1000	1000	0	0
