subj	block	trial	task_cue	task	choice_resp	choiceRT	choice_acc	topnum	topsize	botnum	botsize	cong	task_resp	taskRT	task_acc	RSI	CSI	altRep	E1
093	1	1	?	N	f	3773.21	NA	3	56	9	24	i	j	1254.29	0	1000	1000	-1	0
093	1	2	?	N	f	1136.49	NA	7	56	4	24	c	j	901.65	1	100	100	0	1
093	1	3	?	N	f	851.35	NA	9	24	3	56	i	j	786.27	1	100	100	0	0
093	1	4	?	P	d	736.28	NA	2	56	8	24	i	j	1320.2	1	100	1000	0	0
093	1	5	?	P	d	519.62	NA	3	24	8	56	c	n	567.32	1	100	100	0	0
093	1	6	?	N	f	936.87	NA	8	56	2	24	c	j	620.1	1	100	1000	0	0
093	1	7	?	P	d	2120.8	NA	8	24	4	56	i	n	1370.88	1	1000	1000	0	0
093	1	8	?	N	f	653.01	NA	2	56	7	24	i	n	1054.25	1	1000	100	0	0
093	1	9	?	N	f	419.37	NA	9	56	3	24	c	j	502.75	1	1000	1000	0	0
093	1	10	?	P	d	787.28	NA	9	24	4	56	i	n	1404.61	1	100	1000	0	0
093	1	11	?	P	d	853.14	NA	8	24	3	56	i	n	820.56	1	100	1000	0	0
093	1	12	?	N	f	502.91	NA	2	24	7	56	c	n	1471.44	1	1000	100	0	0
093	1	13	?	N	f	636.36	NA	7	56	4	24	c	j	436.03	1	100	100	0	0
093	1	14	?	P	d	1653.97	NA	7	24	2	56	i	n	753.42	1	1000	1000	0	0
093	1	15	?	P	d	469.67	NA	8	56	3	24	c	j	1120.46	1	1000	100	0	0
093	1	16	?	N	f	569.73	NA	7	56	4	24	c	j	1470.4	1	100	100	0	0
093	1	17	?	N	f	185.51	NA	3	24	7	56	c	n	887.17	1	1000	100	0	0
093	1	18	?	P	d	486.0	NA	2	56	8	24	i	j	1202.2	1	1000	100	0	0
093	1	19	?	P	d	585.8	NA	8	56	3	24	c	j	953.14	1	1000	1000	0	0
093	1	20	?	N	f	19.08	NA	4	24	9	56	c	n	669.8	1	1000	1000	0	0
093	1	21	?	N	f	919.8	NA	2	56	9	24	i	n	853.27	1	100	100	0	0
093	1	22	?	N	f	385.67	NA	7	24	4	56	i	j	753.0	1	1000	100	0	0
093	1	23	?	P	d	402.59	NA	2	24	8	56	c	n	1604.08	1	1000	100	0	0
093	1	24	?	P	d	619.35	NA	8	56	4	24	c	j	1186.93	1	100	1000	0	0
093	1	25	?	N	f	385.99	NA	8	24	2	56	i	n	1654.74	0	100	1000	0	0
093	1	26	?	P	d	1203.36	NA	9	24	3	56	i	n	1504.56	1	1000	1000	0	1
093	1	27	?	N	f	701.23	NA	2	24	8	56	c	n	686.58	1	1000	100	0	0
093	1	28	?	P	d	536.09	NA	8	24	3	56	i	n	1120.01	1	100	100	0	0
093	1	29	?	N	f	335.86	NA	4	24	9	56	c	n	637.01	1	100	1000	0	0
093	1	30	?	N	f	435.3	NA	3	24	8	56	c	n	602.34	1	1000	1000	0	0
093	1	31	?	P	d	386.25	NA	9	24	4	56	i	n	1187.32	1	1000	100	0	0
093	1	32	?	N	f	1019.73	NA	9	24	3	56	i	j	2121.64	1	1000	1000	0	0
093	1	33	?	N	f	1637.41	NA	2	24	8	56	c	n	953.41	1	100	100	0	0
093	1	34	?	N	f	952.95	NA	3	24	8	56	c	n	502.48	1	100	100	0	0
093	1	35	?	N	f	452.84	NA	8	24	2	56	i	j	870.02	1	100	100	0	0
093	1	36	?	N	f	452.18	NA	3	56	7	24	i	n	1303.68	1	1000	1000	0	0
093	1	37	?	P	d	252.49	NA	2	56	8	24	i	j	1136.93	1	1000	1000	0	0
093	1	38	?	P	d	436.78	NA	7	24	4	56	i	n	603.6	1	100	100	0	0
093	1	39	?	P	d	486.2	NA	3	24	8	56	c	n	1304.21	1	100	100	0	0
093	1	40	?	P	d	302.51	NA	4	56	9	24	i	j	936.81	1	100	1000	0	0
093	1	41	?	P	d	619.99	NA	3	56	7	24	i	j	484.28	1	1000	1000	0	0
093	1	42	?	N	f	2188.24	NA	8	56	4	24	c	j	1070.55	1	1000	1000	0	0
093	1	43	?	P	d	385.99	NA	2	56	7	24	i	j	1303.82	1	1000	100	0	0
093	1	44	?	N	f	335.9	NA	3	56	8	24	i	n	786.66	1	100	1000	0	0
093	1	45	?	P	d	352.63	NA	4	56	9	24	i	j	3239.1	1	100	100	0	0
093	1	46	?	N	f	586.23	NA	2	56	7	24	i	n	5090.87	1	1000	100	0	0
093	1	47	?	P	d	385.67	NA	9	24	4	56	i	n	619.65	1	100	1000	0	0
093	1	48	?	P	d	436.74	NA	2	56	8	24	i	j	1720.01	1	1000	1000	0	0
093	1	49	?	N	f	519.84	NA	8	24	4	56	i	j	1603.97	1	100	1000	0	0
093	1	50	?	N	f	235.85	NA	9	56	2	24	c	j	920.28	1	100	1000	0	0
093	1	51	?	N	f	251.61	NA	4	24	7	56	c	n	1187.37	1	1000	1000	0	0
093	1	52	?	P	d	302.62	NA	9	24	3	56	i	n	1570.73	1	100	100	0	0
093	1	53	?	P	d	402.92	NA	9	56	2	24	c	j	502.64	1	1000	100	0	0
093	1	54	?	P	d	302.76	NA	7	56	4	24	c	j	1287.23	1	1000	100	0	0
093	1	55	?	N	f	703.32	NA	2	24	8	56	c	n	2286.37	1	100	1000	0	0
093	1	56	?	N	f	3022.7	NA	7	24	4	56	i	j	1504.77	1	100	100	0	0
093	1	57	?	N	f	651.25	NA	7	24	3	56	i	j	2421.96	1	1000	100	0	0
093	1	58	?	P	d	385.33	NA	4	24	7	56	c	n	787.09	1	1000	1000	0	0
093	1	59	?	P	d	169.28	NA	9	56	2	24	c	j	385.74	1	1000	1000	0	0
093	1	60	?	N	f	753.11	NA	4	24	7	56	c	n	653.37	1	100	1000	0	0
093	1	61	?	N	f	285.27	NA	3	56	8	24	i	n	1118.86	1	1000	100	0	0
093	1	62	?	P	d	335.71	NA	8	56	4	24	c	j	501.89	1	100	1000	0	0
093	1	63	?	P	d	369.02	NA	8	56	3	24	c	j	752.64	1	100	100	0	0
093	1	64	?	N	f	369.6	NA	9	56	4	24	c	j	719.5	1	1000	100	0	0
093	1	65	?	N	f	252.09	NA	3	24	9	56	c	n	770.05	1	100	1000	0	0
093	2	1	?	P	d	819.31	NA	3	24	9	56	c	n	1470.77	1	100	100	-1	0
093	2	2	?	P	d	402.43	NA	9	24	2	56	i	n	653.68	1	100	100	0	0
093	2	3	?	P	d	386.44	NA	4	24	8	56	c	n	552.86	1	1000	1000	0	0
093	2	4	?	N	f	252.8	NA	2	24	9	56	c	j	986.47	0	100	100	0	0
093	2	5	?	N	f	469.53	NA	4	24	9	56	c	n	535.95	1	1000	1000	0	1
093	2	6	?	N	f	285.97	NA	8	56	3	24	c	j	819.92	1	1000	100	0	0
093	2	7	?	P	d	1003.45	NA	7	56	2	24	c	j	3372.58	1	100	1000	0	0
093	2	8	?	P	d	686.38	NA	9	56	3	24	c	j	1604.16	1	1000	1000	0	0
093	2	9	?	P	d	1452.24	NA	2	24	8	56	c	n	1020.25	1	100	1000	0	0
093	2	10	?	N	f	719.98	NA	8	24	4	56	i	n	936.93	0	100	1000	0	0
093	2	11	?	N	f	485.49	NA	9	24	2	56	i	j	837.2	1	1000	1000	0	1
093	2	12	?	N	f	536.18	NA	7	56	4	24	c	j	3839.62	1	1000	1000	0	0
093	2	13	?	P	d	300.84	NA	7	24	3	56	i	n	651.09	1	1000	100	0	0
093	2	14	?	P	d	786.82	NA	8	24	2	56	i	n	402.59	1	100	1000	0	0
093	2	15	?	P	d	202.47	NA	7	56	4	24	c	j	470.1	1	100	1000	0	0
093	2	16	?	P	d	269.43	NA	3	24	9	56	c	n	386.64	1	1000	1000	0	0
093	2	17	?	N	f	250.66	NA	8	24	2	56	i	j	653.11	1	100	1000	0	0
093	2	18	?	N	f	219.4	NA	3	56	9	24	i	n	586.24	1	100	1000	0	0
093	2	19	?	N	f	169.06	NA	4	24	8	56	c	n	903.53	1	100	1000	0	0
093	2	20	?	N	f	436.1	NA	7	24	3	56	i	j	637.06	1	1000	100	0	0
093	2	21	?	P	d	235.93	NA	8	56	2	24	c	j	1153.52	1	100	1000	0	0
093	2	22	?	N	f	269.21	NA	3	24	7	56	c	n	886.41	1	100	100	0	0
093	2	23	?	P	d	268.75	NA	9	24	2	56	i	n	1804.62	1	1000	100	0	0
093	2	24	?	N	f	1320.71	NA	9	56	4	24	c	j	586.61	1	1000	100	0	0
093	2	25	?	P	d	35.71	NA	2	24	7	56	c	n	567.93	1	1000	1000	0	0
093	2	26	?	N	f	169.3	NA	3	24	7	56	c	n	1421.05	1	1000	100	0	0
093	2	27	?	P	d	35.7	NA	2	56	8	24	i	j	2338.77	1	1000	1000	0	0
093	2	28	?	N	f	519.79	NA	4	56	7	24	i	n	1954.82	1	100	100	0	0
093	2	29	?	N	f	185.31	NA	8	24	2	56	i	j	619.21	1	100	100	0	0
093	2	30	?	N	f	235.86	NA	4	56	9	24	i	n	836.19	1	1000	100	0	0
093	2	31	?	P	d	135.33	NA	3	56	7	24	i	j	2939.83	1	100	1000	0	0
093	2	32	?	P	d	102.54	NA	4	56	8	24	i	j	286.02	1	1000	1000	0	0
093	2	33	?	P	d	502.88	NA	2	24	9	56	c	n	569.63	1	1000	100	0	0
093	2	34	?	N	f	569.43	NA	7	56	4	24	c	j	1203.4	1	100	100	0	0
093	2	35	?	N	f	519.42	NA	2	24	9	56	c	n	803.18	1	100	1000	0	0
093	2	36	?	P	d	168.83	NA	8	56	4	24	c	j	1421.5	1	100	1000	0	0
093	2	37	?	P	d	303.54	NA	3	24	8	56	c	n	536.21	1	100	1000	0	0
093	2	38	?	P	d	2.39	NA	4	56	7	24	i	j	586.05	1	1000	100	0	0
093	2	39	?	N	f	469.46	NA	9	56	3	24	c	j	3506.3	1	100	100	0	0
093	2	40	?	N	f	252.62	NA	9	24	4	56	i	j	1537.36	1	100	100	0	0
093	2	41	?	P	d	436.45	NA	7	56	2	24	c	j	1802.04	1	100	100	0	0
093	2	42	?	P	d	302.67	NA	3	56	9	24	i	j	2319.32	1	1000	1000	0	0
093	2	43	?	P	d	319.32	NA	9	24	4	56	i	n	769.56	1	1000	1000	0	0
093	2	44	?	N	f	2.46	NA	7	56	3	24	c	j	1387.07	1	1000	1000	0	0
093	2	45	?	N	f	303.09	NA	8	24	4	56	i	j	969.91	1	100	100	0	0
093	2	46	?	N	f	135.94	NA	2	56	8	24	i	n	670.14	1	1000	100	0	0
093	2	47	?	N	f	452.75	NA	4	56	7	24	i	n	669.54	1	100	100	0	0
093	2	48	?	N	f	384.11	NA	3	56	7	24	i	n	569.99	1	100	100	0	0
093	2	49	?	N	f	486.17	NA	9	56	2	24	c	j	652.79	1	100	100	0	0
093	2	50	?	P	d	603.2	NA	3	24	7	56	c	n	502.78	1	1000	100	0	0
093	2	51	?	P	d	986.55	NA	4	24	8	56	c	n	452.51	1	100	100	0	0
093	2	52	?	P	d	367.55	NA	8	56	2	24	c	n	402.59	0	1000	100	0	0
093	2	53	?	P	d	436.18	NA	8	24	3	56	i	n	486.3	1	100	1000	0	1
093	2	54	?	P	d	169.4	NA	2	56	9	24	i	j	602.89	1	100	1000	0	0
093	2	55	?	N	f	1187.32	NA	8	24	4	56	i	j	2188.02	1	1000	100	0	0
093	2	56	?	N	f	419.09	NA	3	24	8	56	c	n	587.07	1	100	100	0	0
093	2	57	?	P	d	352.7	NA	7	24	2	56	i	n	803.09	1	1000	1000	0	0
093	2	58	?	N	f	302.37	NA	8	24	4	56	i	j	1137.2	1	100	100	0	0
093	2	59	?	P	d	402.87	NA	9	56	3	24	c	j	820.32	1	1000	100	0	0
093	2	60	?	P	d	1687.53	NA	7	56	2	24	c	j	533.8	1	1000	1000	0	0
093	2	61	?	N	f	318.89	NA	7	24	3	56	i	j	936.95	1	1000	100	0	0
093	2	62	?	N	f	135.11	NA	2	24	8	56	c	n	803.52	1	1000	100	0	0
093	2	63	?	P	d	269.01	NA	8	24	3	56	i	n	786.47	1	1000	1000	0	0
093	2	64	?	N	f	469.55	NA	2	56	8	24	i	n	4691.18	1	1000	1000	0	0
093	2	65	?	N	f	1186.9	NA	3	56	7	24	i	n	1387.03	1	100	1000	0	0
093	3	1	?	P	d	453.5	NA	8	24	2	56	i	n	719.87	1	1000	100	-1	0
093	3	2	?	P	d	302.66	NA	7	24	3	56	i	n	536.74	1	1000	100	0	0
093	3	3	?	P	d	452.74	NA	8	24	2	56	i	n	619.9	1	100	1000	0	0
093	3	4	?	N	f	336.21	NA	9	56	3	24	c	j	586.51	1	1000	100	0	0
093	3	5	?	N	f	135.64	NA	4	56	7	24	i	n	619.53	1	1000	1000	0	0
093	3	6	?	N	f	236.01	NA	2	56	7	24	i	n	535.32	1	100	100	0	0
093	3	7	?	P	d	269.3	NA	9	56	3	24	c	j	1251.64	1	100	100	0	0
093	3	8	?	P	d	185.41	NA	4	56	7	24	i	j	1004.46	1	1000	100	0	0
093	3	9	?	N	f	18.94	NA	3	24	9	56	c	n	836.69	1	1000	1000	0	0
093	3	10	?	P	d	302.78	NA	9	24	4	56	i	n	1304.32	1	100	1000	0	0
093	3	11	?	N	f	284.02	NA	8	56	2	24	c	j	737.21	1	100	1000	0	0
093	3	12	?	P	d	136.01	NA	3	56	9	24	i	j	1620.1	1	1000	100	0	0
093	3	13	?	P	d	219.36	NA	8	56	2	24	c	j	719.37	1	100	100	0	0
093	3	14	?	N	f	402.79	NA	4	56	9	24	i	n	1020.21	1	1000	100	0	0
093	3	15	?	N	f	235.9	NA	8	56	2	24	c	j	769.7	1	100	1000	0	0
093	3	16	?	N	f	186.01	NA	4	56	9	24	i	n	536.26	1	100	100	0	0
093	3	17	?	N	f	303.57	NA	8	24	2	56	i	j	769.82	1	1000	100	0	0
093	3	18	?	P	d	119.24	NA	3	24	8	56	c	n	852.9	1	100	1000	0	0
093	3	19	?	N	f	836.49	NA	2	56	9	24	i	n	770.05	1	100	100	0	0
093	3	20	?	P	d	252.67	NA	4	24	7	56	c	n	936.52	1	1000	100	0	0
093	3	21	?	P	d	452.68	NA	8	56	3	24	c	j	703.01	1	1000	100	0	0
093	3	22	?	N	f	18.66	NA	2	24	7	56	c	n	619.85	1	1000	1000	0	0
093	3	23	?	P	d	552.64	NA	4	24	9	56	c	n	703.43	1	1000	100	0	0
093	3	24	?	N	f	353.01	NA	9	56	2	24	c	j	770.75	1	100	100	0	0
093	3	25	?	P	d	352.84	NA	4	56	7	24	i	j	419.97	1	1000	1000	0	0
093	3	26	?	N	f	85.6	NA	2	56	9	24	i	n	3406.21	1	1000	100	0	0
093	3	27	?	P	d	235.72	NA	4	24	7	56	c	n	1237.79	1	1000	1000	0	0
093	3	28	?	P	d	369.56	NA	2	56	9	24	i	n	652.76	0	100	1000	0	0
093	3	29	?	P	d	452.62	NA	3	56	9	24	i	j	786.45	1	100	100	0	1
093	3	30	?	P	d	318.9	NA	4	24	9	56	c	n	600.79	1	100	100	0	0
093	3	31	?	N	f	252.36	NA	2	24	8	56	c	n	1270.75	1	1000	1000	0	0
093	3	32	?	N	f	185.99	NA	9	24	4	56	i	j	552.97	1	100	100	0	0
093	3	33	?	N	f	86.33	NA	8	24	2	56	i	j	619.84	1	1000	100	0	0
093	3	34	?	N	f	452.56	NA	9	24	4	56	i	j	936.43	1	100	1000	0	0
093	3	35	?	P	d	569.49	NA	9	24	3	56	i	n	2086.11	1	1000	1000	0	0
093	3	36	?	P	d	502.64	NA	4	24	8	56	c	n	519.71	1	100	100	0	0
093	3	37	?	P	d	303.0	NA	3	24	7	56	c	n	486.59	1	100	1000	0	0
093	3	38	?	P	d	285.81	NA	9	24	2	56	i	n	586.24	1	100	1000	0	0
093	3	39	?	P	d	1670.79	NA	4	24	8	56	c	n	486.83	1	1000	100	0	0
093	3	40	?	P	d	534.54	NA	3	24	7	56	c	n	569.69	1	100	100	0	0
093	3	41	?	N	f	2.37	NA	8	56	2	24	c	j	1353.77	1	1000	1000	0	0
093	3	42	?	N	f	402.44	NA	7	56	4	24	c	j	852.89	1	100	1000	0	0
093	3	43	?	N	f	118.76	NA	3	24	7	56	c	n	703.31	1	1000	100	0	0
093	3	44	?	P	d	536.16	NA	8	56	4	24	c	j	686.14	1	1000	1000	0	0
093	3	45	?	N	f	502.9	NA	2	56	7	24	i	n	987.5	1	100	1000	0	0
093	3	46	?	N	f	85.76	NA	7	24	3	56	i	j	1454.51	1	1000	1000	0	0
093	3	47	?	P	d	217.3	NA	4	56	9	24	i	j	3857.57	1	100	1000	0	0
093	3	48	?	P	d	85.83	NA	8	56	3	24	c	j	1404.45	1	1000	1000	0	0
093	3	49	?	N	f	536.2	NA	7	24	4	56	i	j	652.82	1	100	100	0	0
093	3	50	?	N	f	302.94	NA	2	24	8	56	c	n	1103.59	1	100	1000	0	0
093	3	51	?	N	f	219.11	NA	7	24	3	56	i	j	1154.09	1	100	1000	0	0
093	3	52	?	N	f	702.9	NA	7	56	4	24	c	j	803.38	1	1000	1000	0	0
093	3	53	?	P	d	285.58	NA	7	24	3	56	i	n	1803.61	1	100	100	0	0
093	3	54	?	P	d	468.92	NA	8	56	2	24	c	j	1186.28	1	100	1000	0	0
093	3	55	?	P	d	970.14	NA	4	24	9	56	c	n	535.97	1	100	100	0	0
093	3	56	?	N	f	286.09	NA	7	24	2	56	i	j	1720.82	1	1000	1000	0	0
093	3	57	?	N	f	352.31	NA	4	24	9	56	c	n	1053.31	1	100	1000	0	0
093	3	58	?	N	f	219.45	NA	7	56	2	24	c	j	586.29	1	100	100	0	0
093	3	59	?	N	f	302.51	NA	4	56	9	24	i	n	1037.25	1	1000	1000	0	0
093	3	60	?	P	d	436.0	NA	8	24	2	56	i	n	1871.59	1	1000	1000	0	0
093	3	61	?	P	d	152.45	NA	3	56	7	24	i	j	1353.63	1	1000	1000	0	0
093	3	62	?	P	d	635.5	NA	8	56	2	24	c	j	653.09	1	1000	100	0	0
093	3	63	?	N	f	369.73	NA	7	56	4	24	c	j	670.0	1	1000	100	0	0
093	3	64	?	N	f	752.98	NA	7	24	2	56	i	j	869.48	1	100	100	0	0
093	3	65	?	P	d	68.94	NA	7	24	3	56	i	j	1704.7	0	1000	100	0	0
093	4	1	?	N	f	336.18	NA	9	24	4	56	i	j	2071.24	1	1000	100	-1	0
093	4	2	?	N	f	452.74	NA	9	56	3	24	c	j	752.75	1	1000	100	0	0
093	4	3	?	N	f	419.63	NA	7	56	2	24	c	j	603.3	1	100	100	0	0
093	4	4	?	N	f	300.88	NA	8	24	3	56	i	j	602.98	1	1000	100	0	0
093	4	5	?	P	d	235.32	NA	7	24	4	56	i	n	403.21	1	1000	1000	0	0
093	4	6	?	P	d	336.35	NA	2	56	8	24	i	j	586.1	1	100	100	0	0
093	4	7	?	P	d	302.4	NA	4	56	8	24	i	j	1303.96	1	1000	1000	0	0
093	4	8	?	N	f	302.97	NA	3	56	8	24	i	n	1487.13	1	1000	100	0	0
093	4	9	?	N	f	369.24	NA	4	24	9	56	c	n	569.22	1	1000	100	0	0
093	4	10	?	N	f	502.2	NA	3	24	7	56	c	n	3873.11	1	100	1000	0	0
093	4	11	?	P	d	285.67	NA	2	24	8	56	c	n	5942.88	1	1000	1000	0	0
093	4	12	?	N	f	653.07	NA	8	56	4	24	c	j	653.25	1	1000	1000	0	0
093	4	13	?	N	f	702.68	NA	8	56	3	24	c	j	553.05	1	100	1000	0	0
093	4	14	?	N	f	318.76	NA	9	56	4	24	c	j	520.17	1	100	100	0	0
093	4	15	?	P	d	285.9	NA	3	56	7	24	i	n	3371.16	0	1000	1000	0	0
093	4	16	?	P	d	667.89	NA	8	24	4	56	i	n	485.5	1	100	1000	0	1
093	4	17	?	P	d	319.68	NA	3	24	7	56	c	n	553.48	1	100	1000	0	0
093	4	18	?	P	d	585.88	NA	4	24	8	56	c	n	502.79	1	100	1000	0	0
093	4	19	?	N	f	2589.16	NA	2	24	9	56	c	n	2271.26	1	100	100	0	0
093	4	20	?	N	f	169.0	NA	4	56	9	24	i	n	768.27	1	100	100	0	0
093	4	21	?	N	f	102.76	NA	2	56	8	24	i	n	784.56	1	1000	1000	0	0
093	4	22	?	N	f	336.33	NA	3	24	7	56	c	n	753.54	1	1000	100	0	0
093	4	23	?	N	f	118.98	NA	4	56	9	24	i	n	1120.33	1	1000	1000	0	0
093	4	24	?	P	d	35.35	NA	8	24	2	56	i	n	685.07	1	1000	100	0	0
093	4	25	?	P	d	169.73	NA	8	24	4	56	i	n	736.55	1	100	100	0	0
093	4	26	?	P	d	352.15	NA	2	56	7	24	i	j	620.08	1	1000	100	0	0
093	4	27	?	N	f	319.38	NA	4	24	9	56	c	n	486.01	1	1000	100	0	0
093	4	28	?	N	f	285.98	NA	9	24	3	56	i	n	819.91	0	100	1000	0	0
093	4	29	?	N	f	801.1	NA	9	56	4	24	c	j	720.13	1	100	1000	0	1
093	4	30	?	N	f	618.99	NA	9	24	2	56	i	j	1053.19	1	100	100	0	0
093	4	31	?	N	f	502.87	NA	7	56	4	24	c	j	936.94	1	1000	1000	0	0
093	4	32	?	P	d	167.31	NA	3	24	9	56	c	n	1003.64	1	100	1000	0	0
093	4	33	?	N	f	202.15	NA	7	56	2	24	c	j	635.74	1	100	1000	0	0
093	4	34	?	P	d	219.32	NA	8	24	4	56	i	n	1354.14	1	100	1000	0	0
093	4	35	?	P	d	352.77	NA	3	24	8	56	c	n	1220.23	1	1000	1000	0	0
093	4	36	?	N	f	636.33	NA	4	56	8	24	i	n	537.58	1	100	1000	0	0
093	4	37	?	P	d	420.57	NA	7	56	2	24	c	j	1268.36	1	100	100	0	0
093	4	38	?	N	f	69.05	NA	3	24	9	56	c	n	1220.21	1	1000	100	0	0
093	4	39	?	P	d	185.31	NA	8	56	2	24	c	j	402.58	1	100	1000	0	0
093	4	40	?	P	d	152.23	NA	8	56	3	24	c	j	586.27	1	1000	1000	0	0
093	4	41	?	N	f	269.16	NA	7	56	2	24	c	j	1354.15	1	100	100	0	0
093	4	42	?	N	f	252.45	NA	7	24	3	56	i	j	720.26	1	100	1000	0	0
093	4	43	?	P	d	586.11	NA	4	56	8	24	i	j	1003.93	1	100	100	0	0
093	4	44	?	P	d	185.73	NA	2	24	7	56	c	n	502.94	1	100	100	0	0
093	4	45	?	N	f	369.46	NA	4	56	7	24	i	n	3473.18	1	1000	1000	0	0
093	4	46	?	N	f	269.12	NA	9	24	2	56	i	j	753.36	1	1000	1000	0	0
093	4	47	?	P	d	53.08	NA	7	56	4	24	c	j	1353.56	1	1000	100	0	0
093	4	48	?	P	d	235.96	NA	2	24	7	56	c	n	1503.68	1	1000	1000	0	0
093	4	49	?	N	f	85.24	NA	9	24	3	56	i	j	3356.52	1	1000	100	0	0
093	4	50	?	N	f	333.98	NA	2	24	7	56	c	n	4457.24	1	1000	1000	0	0
093	4	51	?	P	d	319.61	NA	9	24	4	56	i	n	6409.71	1	100	100	0	0
093	4	52	?	P	d	634.44	NA	8	56	3	24	c	j	586.95	1	1000	100	0	0
093	4	53	?	P	d	319.3	NA	4	56	9	24	i	j	820.46	1	1000	100	0	0
093	4	54	?	N	f	502.41	NA	2	56	9	24	i	n	2553.55	1	100	1000	0	0
093	4	55	?	N	f	202.23	NA	3	56	8	24	i	n	4156.87	1	1000	100	0	0
093	4	56	?	N	f	419.21	NA	9	24	4	56	i	j	869.69	1	100	1000	0	0
093	4	57	?	N	f	569.84	NA	8	56	3	24	c	j	2288.05	1	1000	100	0	0
093	4	58	?	P	d	35.55	NA	4	56	8	24	i	j	1420.98	1	1000	1000	0	0
093	4	59	?	P	d	351.97	NA	3	56	9	24	i	j	653.24	1	100	100	0	0
093	4	60	?	P	d	885.99	NA	2	56	8	24	i	j	469.51	1	100	1000	0	0
093	4	61	?	N	f	2.4	NA	3	56	7	24	i	j	570.02	0	1000	100	0	0
093	4	62	?	N	f	669.4	NA	4	56	8	24	i	n	636.1	1	100	100	0	1
093	4	63	?	N	f	285.89	NA	3	24	8	56	c	n	635.77	1	100	100	0	0
093	4	64	?	N	f	185.82	NA	2	24	7	56	c	n	685.93	1	100	100	0	0
093	4	65	?	N	f	235.81	NA	7	56	3	24	c	j	2205.55	1	1000	1000	0	0
093	5	1	?	N	f	5007.89	NA	7	56	3	24	c	j	1238.15	1	100	100	-1	0
093	5	2	?	N	f	502.77	NA	2	24	8	56	c	n	603.42	1	1000	1000	0	0
093	5	3	?	P	d	386.22	NA	9	56	4	24	c	j	1086.74	1	100	100	0	0
093	5	4	?	P	d	302.66	NA	3	24	8	56	c	n	886.78	1	100	1000	0	0
093	5	5	?	N	f	218.66	NA	9	56	4	24	c	j	552.8	1	100	100	0	0
093	5	6	?	N	f	252.7	NA	8	56	3	24	c	j	469.69	1	100	100	0	0
093	5	7	?	N	f	302.6	NA	4	24	8	56	c	n	635.71	1	100	1000	0	0
093	5	8	?	P	d	169.43	NA	3	24	8	56	c	n	386.35	1	100	1000	0	0
093	5	9	?	P	d	219.15	NA	4	24	8	56	c	n	520.22	1	100	100	0	0
093	5	10	?	P	d	285.27	NA	8	24	3	56	i	n	553.14	1	100	100	0	0
093	5	11	?	N	f	469.8	NA	2	24	9	56	c	n	1403.85	1	1000	1000	0	0
093	5	12	?	N	f	302.79	NA	8	56	3	24	c	j	970.64	1	100	1000	0	0
093	5	13	?	P	d	385.64	NA	2	56	9	24	i	j	819.73	1	1000	1000	0	0
093	5	14	?	P	d	135.24	NA	4	24	9	56	c	n	619.81	1	1000	100	0	0
093	5	15	?	P	d	85.75	NA	3	24	9	56	c	n	536.88	1	1000	100	0	0
093	5	16	?	N	f	135.55	NA	4	24	9	56	c	n	2472.0	1	1000	1000	0	0
093	5	17	?	P	d	185.44	NA	8	56	3	24	c	j	2987.76	1	1000	1000	0	0
093	5	18	?	N	f	452.87	NA	9	56	2	24	c	j	803.24	1	1000	100	0	0
093	5	19	?	P	d	202.22	NA	3	56	7	24	i	j	1087.01	1	100	100	0	0
093	5	20	?	N	f	35.56	NA	8	24	4	56	i	n	552.59	0	1000	100	0	0
093	5	21	?	P	d	385.49	NA	3	56	7	24	i	j	803.26	1	100	1000	0	1
093	5	22	?	P	d	236.12	NA	4	24	7	56	c	n	602.86	1	100	100	0	0
093	5	23	?	N	f	353.02	NA	3	56	8	24	i	n	686.88	1	100	1000	0	0
093	5	24	?	N	f	252.14	NA	2	56	7	24	i	n	635.89	1	100	100	0	0
093	5	25	?	N	f	168.54	NA	3	24	9	56	c	n	600.78	1	1000	1000	0	0
093	5	26	?	N	f	135.81	NA	9	24	4	56	i	j	2421.78	1	100	1000	0	0
093	5	27	?	P	d	219.33	NA	9	56	2	24	c	j	1754.82	1	1000	100	0	0
093	5	28	?	P	d	219.39	NA	4	56	8	24	i	j	653.11	1	100	100	0	0
093	5	29	?	P	d	219.35	NA	7	24	2	56	i	n	820.04	1	1000	100	0	0
093	5	30	?	N	f	1620.78	NA	4	56	8	24	i	n	1202.83	1	1000	100	0	0
093	5	31	?	P	d	283.54	NA	2	56	8	24	i	j	518.81	1	1000	100	0	0
093	5	32	?	N	f	18.64	NA	7	56	3	24	c	j	869.94	1	1000	1000	0	0
093	5	33	?	N	f	201.55	NA	2	56	8	24	i	n	803.84	1	100	1000	0	0
093	5	34	?	N	f	302.48	NA	4	56	8	24	i	n	2138.05	1	1000	1000	0	0
093	5	35	?	N	f	152.55	NA	9	56	2	24	c	j	870.4	1	100	100	0	0
093	5	36	?	N	f	486.06	NA	3	56	9	24	i	n	787.11	1	1000	100	0	0
093	5	37	?	N	f	2169.46	NA	2	24	9	56	c	n	535.97	1	100	100	0	0
093	5	38	?	N	f	169.28	NA	7	56	4	24	c	j	620.09	1	1000	100	0	0
093	5	39	?	P	d	2.37	NA	9	56	2	24	c	j	886.55	1	1000	100	0	0
093	5	40	?	P	d	0.4	NA	9	56	4	24	c	j	786.25	1	1000	1000	0	0
093	5	41	?	P	d	68.8	NA	3	56	8	24	i	j	836.19	1	1000	100	0	0
093	5	42	?	P	d	68.28	NA	9	24	4	56	i	n	553.1	1	100	100	0	0
093	5	43	?	P	d	34.91	NA	9	24	3	56	i	n	553.4	1	100	1000	0	0
093	5	44	?	N	f	169.05	NA	7	24	2	56	i	n	802.99	0	100	1000	0	0
093	5	45	?	N	f	102.73	NA	3	56	8	24	i	n	785.82	1	1000	1000	0	1
093	5	46	?	N	f	436.14	NA	8	24	2	56	i	j	701.44	1	100	100	0	0
093	5	47	?	P	d	2.4	NA	3	56	9	24	i	j	1253.93	1	1000	100	0	0
093	5	48	?	N	f	136.37	NA	8	24	4	56	i	j	2254.52	1	1000	1000	0	0
093	5	49	?	N	f	52.29	NA	3	56	9	24	i	n	535.56	1	1000	1000	0	0
093	5	50	?	P	d	33.57	NA	8	24	4	56	i	n	1320.22	1	1000	1000	0	0
093	5	51	?	P	d	102.1	NA	8	56	2	24	c	j	602.77	1	1000	1000	0	0
093	5	52	?	P	d	85.73	NA	8	24	4	56	i	n	669.97	1	100	100	0	0
093	5	53	?	P	d	102.78	NA	7	24	2	56	i	n	753.47	1	1000	100	0	0
093	5	54	?	N	f	169.09	NA	4	24	8	56	c	n	7544.08	1	1000	100	0	0
093	5	55	?	P	d	1103.06	NA	3	24	9	56	c	n	1537.87	1	100	100	0	0
093	5	56	?	P	d	369.06	NA	4	24	7	56	c	n	636.76	1	1000	100	0	0
093	5	57	?	N	f	68.4	NA	9	56	3	24	c	j	853.94	1	100	1000	0	0
093	5	58	?	N	f	119.16	NA	7	56	2	24	c	j	1337.3	1	100	1000	0	0
093	5	59	?	N	f	135.77	NA	9	24	3	56	i	j	853.23	1	100	1000	0	0
093	5	60	?	N	f	68.9	NA	9	24	2	56	i	j	820.54	1	100	100	0	0
093	5	61	?	N	f	52.36	NA	3	24	9	56	c	n	937.78	1	100	1000	0	0
093	5	62	?	N	f	85.65	NA	4	56	7	24	i	n	1103.64	1	100	1000	0	0
093	5	63	?	P	d	85.53	NA	8	56	3	24	c	j	1320.54	1	100	1000	0	0
093	5	64	?	P	d	51.68	NA	2	56	7	24	i	j	1788.41	1	1000	1000	0	0
093	5	65	?	P	d	68.79	NA	4	56	9	24	i	j	1954.54	1	1000	1000	0	0
093	6	1	?	N	f	1487.38	NA	8	24	4	56	i	j	1938.75	1	100	100	-1	0
093	6	2	?	N	f	185.71	NA	2	56	9	24	i	n	1186.98	1	1000	1000	0	0
093	6	3	?	N	f	1504.32	NA	9	56	3	24	c	j	769.35	1	100	100	0	0
093	6	4	?	N	f	185.87	NA	7	56	4	24	c	j	719.2	1	1000	1000	0	0
093	6	5	?	N	f	419.77	NA	3	56	8	24	i	n	853.47	1	1000	100	0	0
093	6	6	?	N	f	136.16	NA	4	56	8	24	i	n	986.05	1	1000	100	0	0
093	6	7	?	N	f	886.68	NA	2	24	7	56	c	n	702.89	1	100	1000	0	0
093	6	8	?	N	f	435.27	NA	9	24	3	56	i	j	1720.59	1	1000	1000	0	0
093	6	9	?	P	d	269.04	NA	2	24	7	56	c	n	8879.05	1	100	100	0	0
093	6	10	?	P	d	453.31	NA	8	24	4	56	i	n	9931.09	1	100	100	0	0
093	6	11	?	P	d	452.48	NA	2	56	8	24	i	j	1621.23	1	1000	1000	0	0
093	6	12	?	P	d	135.86	NA	8	56	3	24	c	j	634.85	1	1000	100	0	0
093	6	13	?	P	d	52.74	NA	7	24	2	56	i	n	636.99	1	100	100	0	0
093	6	14	?	P	d	52.29	NA	7	24	3	56	i	n	619.76	1	1000	1000	0	0
093	6	15	?	N	f	119.29	NA	9	56	4	24	c	j	736.03	1	1000	100	0	0
093	6	16	?	P	d	69.08	NA	8	24	2	56	i	n	837.41	1	1000	100	0	0
093	6	17	?	N	f	69.16	NA	3	24	7	56	c	n	519.67	1	100	1000	0	0
093	6	18	?	P	d	217.51	NA	2	56	7	24	i	j	3255.85	1	100	100	0	0
093	6	19	?	P	d	52.37	NA	4	24	9	56	c	n	1386.94	1	1000	1000	0	0
093	6	20	?	N	f	335.91	NA	2	24	9	56	c	n	1119.95	1	100	100	0	0
093	6	21	?	P	d	402.53	NA	4	56	9	24	i	j	2822.49	1	1000	1000	0	0
093	6	22	?	P	d	135.16	NA	2	24	8	56	c	n	501.56	1	1000	100	0	0
093	6	23	?	P	d	101.52	NA	7	56	4	24	c	j	886.04	1	1000	1000	0	0
093	6	24	?	N	f	1453.1	NA	7	24	2	56	i	j	1270.78	1	100	100	0	0
093	6	25	?	N	f	135.75	NA	8	24	3	56	i	j	5307.73	1	100	1000	0	0
093	6	26	?	N	f	235.7	NA	9	56	2	24	c	j	1270.74	1	100	1000	0	0
093	6	27	?	N	f	68.38	NA	8	56	4	24	c	j	586.88	1	1000	100	0	0
093	6	28	?	N	f	135.5	NA	8	24	2	56	i	j	5975.73	1	1000	100	0	0
093	6	29	?	P	d	169.16	NA	9	24	4	56	i	n	2923.07	1	1000	1000	0	0
093	6	30	?	P	d	269.52	NA	8	24	2	56	i	n	552.77	1	100	1000	0	0
093	6	31	?	P	d	85.55	NA	4	56	7	24	i	j	600.66	1	100	100	0	0
093	6	32	?	P	d	68.71	NA	2	24	8	56	c	n	519.68	1	1000	100	0	0
093	6	33	?	N	f	152.56	NA	4	24	7	56	c	n	1955.67	1	1000	1000	0	0
093	6	34	?	N	f	85.19	NA	9	56	2	24	c	j	602.65	1	100	1000	0	0
093	6	35	?	N	f	68.54	NA	4	24	9	56	c	n	570.19	1	1000	1000	0	0
093	6	36	?	N	f	419.42	NA	2	56	7	24	i	n	1154.6	1	1000	100	0	0
093	6	37	?	P	d	369.53	NA	4	24	7	56	c	n	787.09	1	100	100	0	0
093	6	38	?	P	d	118.94	NA	2	24	7	56	c	n	502.41	1	1000	1000	0	0
093	6	39	?	P	d	52.31	NA	9	56	3	24	c	j	569.14	1	100	100	0	0
093	6	40	?	P	d	219.02	NA	7	24	4	56	i	n	553.49	1	100	100	0	0
093	6	41	?	P	d	285.85	NA	2	56	7	24	i	j	1337.23	1	1000	1000	0	0
093	6	42	?	N	f	68.94	NA	7	24	3	56	i	n	536.77	0	100	100	0	0
093	6	43	?	N	f	502.93	NA	2	24	9	56	c	n	617.48	1	100	100	0	1
093	6	44	?	N	f	35.73	NA	9	24	4	56	i	j	687.23	1	100	1000	0	0
093	6	45	?	N	f	2.4	NA	3	24	9	56	c	n	703.91	1	100	1000	0	0
093	6	46	?	N	f	402.32	NA	9	24	2	56	i	j	652.94	1	1000	100	0	0
093	6	47	?	N	f	602.19	NA	8	56	4	24	c	j	870.29	1	1000	1000	0	0
093	6	48	?	P	d	119.04	NA	2	24	9	56	c	n	570.34	1	1000	100	0	0
093	6	49	?	N	f	68.79	NA	8	56	3	24	c	j	603.05	1	1000	1000	0	0
093	6	50	?	P	d	152.58	NA	2	24	9	56	c	n	500.99	1	1000	100	0	0
093	6	51	?	P	d	118.98	NA	4	56	9	24	i	n	703.39	0	100	1000	0	0
093	6	52	?	P	d	202.68	NA	3	56	8	24	i	j	702.73	1	100	1000	0	1
093	6	53	?	P	d	52.51	NA	7	24	4	56	i	n	634.85	1	100	1000	0	0
093	6	54	?	N	f	83.82	NA	3	24	9	56	c	n	1520.31	1	100	1000	0	0
093	6	55	?	N	f	35.67	NA	2	56	8	24	i	n	1153.46	1	1000	1000	0	0
093	6	56	?	N	f	35.79	NA	8	56	4	24	c	j	753.67	1	100	1000	0	0
093	6	57	?	N	f	85.69	NA	7	56	3	24	c	j	786.52	1	1000	100	0	0
093	6	58	?	N	f	2.51	NA	8	56	4	24	c	j	653.33	1	100	1000	0	0
093	6	59	?	N	f	169.29	NA	9	56	2	24	c	j	619.69	1	100	100	0	0
093	6	60	?	N	f	2.42	NA	9	24	4	56	i	j	820.06	1	1000	100	0	0
093	6	61	?	N	f	152.51	NA	9	24	2	56	i	j	517.48	1	1000	100	0	0
093	6	62	?	P	d	352.71	NA	8	24	3	56	i	n	802.46	1	100	1000	0	0
093	6	63	?	P	d	202.31	NA	9	24	2	56	i	n	753.74	1	100	1000	0	0
093	6	64	?	P	d	52.34	NA	9	24	4	56	i	n	469.89	1	100	100	0	0
093	6	65	?	P	d	2.42	NA	8	56	3	24	c	j	703.36	1	100	100	0	0
