subj	block	trial	task_cue	task	choice_resp	choiceRT	choice_acc	topnum	topsize	botnum	botsize	cong	task_resp	taskRT	task_acc	RSI	CSI	altRep	E1
095	1	1	?	P	f	436.07	NA	4	56	7	24	i	j	1353.72	1	1000	100	-1	0
095	1	2	?	N	d	717.76	NA	8	56	3	24	c	n	1620.89	0	1000	1000	0	0
095	1	3	?	P	f	1436.97	NA	9	24	4	56	i	n	652.87	1	100	1000	0	1
095	1	4	?	N	d	1036.94	NA	9	56	3	24	c	j	920.3	1	100	100	0	0
095	1	5	?	P	f	820.22	NA	8	24	2	56	i	n	1003.88	1	100	100	0	0
095	1	6	?	N	d	35.81	NA	3	56	7	24	i	n	921.03	1	1000	100	0	0
095	1	7	?	P	f	303.14	NA	2	24	8	56	c	n	820.5	1	1000	100	0	0
095	1	8	?	P	f	1003.21	NA	3	24	9	56	c	n	469.81	1	100	1000	0	0
095	1	9	?	N	d	302.51	NA	2	56	7	24	i	n	853.17	1	1000	100	0	0
095	1	10	?	N	d	919.86	NA	4	56	9	24	i	n	886.83	1	100	100	0	0
095	1	11	?	N	d	419.55	NA	3	24	7	56	c	n	719.94	1	1000	100	0	0
095	1	12	?	N	d	350.72	NA	9	56	4	24	c	j	720.62	1	1000	100	0	0
095	1	13	?	P	f	1303.94	NA	3	24	8	56	c	n	602.28	1	100	1000	0	0
095	1	14	?	P	f	769.95	NA	7	56	2	24	c	j	419.58	1	100	1000	0	0
095	1	15	?	N	d	636.45	NA	9	24	3	56	i	j	769.95	1	1000	100	0	0
095	1	16	?	P	f	1304.22	NA	9	24	2	56	i	j	820.33	0	100	100	0	0
095	1	17	?	N	d	1253.28	NA	8	24	4	56	i	j	886.64	1	100	1000	0	1
095	1	18	?	P	f	452.68	NA	9	24	3	56	i	n	919.79	1	1000	1000	0	0
095	1	19	?	P	f	1120.34	NA	4	56	9	24	i	j	319.32	1	100	1000	0	0
095	1	20	?	N	d	1270.34	NA	2	24	9	56	c	n	536.46	1	100	1000	0	0
095	1	21	?	N	d	736.24	NA	3	56	7	24	i	n	602.67	1	1000	1000	0	0
095	1	22	?	N	d	1053.39	NA	9	24	2	56	i	j	537.0	1	100	1000	0	0
095	1	23	?	P	f	1638.17	NA	4	24	9	56	c	n	702.92	1	100	100	0	0
095	1	24	?	P	f	1003.46	NA	9	24	2	56	i	n	585.65	1	100	1000	0	0
095	1	25	?	N	d	1703.82	NA	9	56	3	24	c	j	469.5	1	100	1000	0	0
095	1	26	?	N	d	369.4	NA	4	56	9	24	i	n	552.83	1	1000	1000	0	0
095	1	27	?	N	d	402.49	NA	3	56	9	24	i	n	686.44	1	1000	100	0	0
095	1	28	?	N	d	719.19	NA	4	24	9	56	c	n	536.87	1	100	100	0	0
095	1	29	?	P	f	569.78	NA	3	24	8	56	c	n	1051.83	1	100	100	0	0
095	1	30	?	P	f	636.02	NA	9	56	2	24	c	j	420.17	1	100	1000	0	0
095	1	31	?	P	f	435.89	NA	8	56	3	24	c	j	385.43	1	1000	1000	0	0
095	1	32	?	P	f	920.05	NA	4	56	9	24	i	j	420.23	1	1000	1000	0	0
095	1	33	?	P	f	886.73	NA	7	56	3	24	c	j	553.69	1	100	100	0	0
095	1	34	?	N	d	585.78	NA	8	24	4	56	i	n	520.41	0	100	100	0	0
095	1	35	?	N	d	1604.23	NA	7	56	3	24	c	j	553.6	1	1000	100	0	1
095	1	36	?	N	d	285.32	NA	9	24	2	56	i	j	653.58	1	1000	100	0	0
095	1	37	?	N	d	469.54	NA	3	24	8	56	c	n	486.47	1	1000	1000	0	0
095	1	38	?	N	d	820.25	NA	9	56	4	24	c	j	620.14	1	100	100	0	0
095	1	39	?	P	f	452.86	NA	3	24	7	56	c	n	586.82	1	1000	100	0	0
095	1	40	?	P	f	1153.46	NA	9	56	2	24	c	j	519.48	1	100	1000	0	0
095	1	41	?	P	f	586.34	NA	4	56	9	24	i	j	519.27	1	1000	1000	0	0
095	1	42	?	P	f	736.15	NA	3	24	9	56	c	n	436.99	1	1000	1000	0	0
095	1	43	?	N	d	151.61	NA	2	56	7	24	i	n	536.4	1	1000	1000	0	0
095	1	44	?	N	d	920.36	NA	7	56	3	24	c	j	553.38	1	100	100	0	0
095	1	45	?	N	d	769.9	NA	2	24	8	56	c	n	453.04	1	100	1000	0	0
095	1	46	?	N	d	567.39	NA	8	24	4	56	i	j	653.61	1	1000	1000	0	0
095	1	47	?	N	d	1203.8	NA	9	24	2	56	i	j	586.41	1	100	100	0	0
095	1	48	?	N	d	869.94	NA	9	56	4	24	c	j	553.22	1	1000	1000	0	0
095	1	49	?	P	f	302.69	NA	3	56	9	24	i	n	486.45	0	1000	100	0	0
095	1	50	?	P	f	369.2	NA	9	56	2	24	c	j	536.61	1	1000	100	0	1
095	1	51	?	P	f	486.11	NA	8	56	3	24	c	j	486.21	1	1000	1000	0	0
095	1	52	?	P	f	636.14	NA	4	24	7	56	c	n	353.46	1	1000	1000	0	0
095	1	53	?	N	d	754.01	NA	3	56	8	24	i	n	1054.05	1	100	100	0	0
095	1	54	?	N	d	886.62	NA	7	24	4	56	i	j	719.78	1	100	100	0	0
095	1	55	?	N	d	335.97	NA	7	24	2	56	i	j	569.3	1	1000	1000	0	0
095	1	56	?	P	f	302.76	NA	8	24	4	56	i	n	534.22	1	1000	100	0	0
095	1	57	?	P	f	536.4	NA	8	24	3	56	i	n	503.24	1	100	1000	0	0
095	1	58	?	N	d	300.52	NA	2	24	8	56	c	n	653.11	1	1000	1000	0	0
095	1	59	?	P	f	519.51	NA	3	24	7	56	c	n	686.37	1	100	100	0	0
095	1	60	?	N	d	617.95	NA	2	56	9	24	i	n	853.42	1	100	1000	0	0
095	1	61	?	P	f	519.63	NA	4	56	9	24	i	j	753.73	1	100	100	0	0
095	1	62	?	N	d	2054.69	NA	9	24	2	56	i	j	669.54	1	1000	100	0	0
095	1	63	?	P	f	369.6	NA	3	24	8	56	c	n	453.13	1	1000	100	0	0
095	1	64	?	P	f	1120.26	NA	4	56	7	24	i	j	352.75	1	100	1000	0	0
095	1	65	?	P	f	418.89	NA	7	56	3	24	c	j	486.18	1	1000	100	0	0
095	2	1	?	P	f	1086.94	NA	4	56	8	24	i	j	500.49	1	100	100	-1	0
095	2	2	?	P	f	736.74	NA	9	24	2	56	i	n	500.82	1	100	100	0	0
095	2	3	?	P	f	319.34	NA	8	56	3	24	c	j	386.66	1	1000	1000	0	0
095	2	4	?	N	d	517.59	NA	8	24	2	56	i	j	570.36	1	100	1000	0	0
095	2	5	?	N	d	919.95	NA	3	24	9	56	c	n	620.14	1	100	100	0	0
095	2	6	?	N	d	552.86	NA	2	56	9	24	i	j	503.36	0	100	1000	0	0
095	2	7	?	P	f	436.06	NA	7	56	3	24	c	j	636.47	1	100	1000	0	1
095	2	8	?	P	f	419.31	NA	2	56	8	24	i	j	1704.01	1	1000	100	0	0
095	2	9	?	P	f	603.26	NA	3	56	7	24	i	j	553.07	1	100	100	0	0
095	2	10	?	N	d	369.2	NA	2	56	7	24	i	n	719.54	1	100	100	0	0
095	2	11	?	N	d	702.81	NA	4	24	7	56	c	n	503.12	1	100	100	0	0
095	2	12	?	N	d	769.66	NA	2	24	8	56	c	n	719.24	1	100	100	0	0
095	2	13	?	P	f	385.85	NA	7	56	3	24	c	j	620.33	1	100	100	0	0
095	2	14	?	P	f	1136.94	NA	7	56	4	24	c	j	970.71	1	1000	100	0	0
095	2	15	?	P	f	970.6	NA	2	24	9	56	c	n	500.47	1	100	100	0	0
095	2	16	?	N	d	119.05	NA	3	24	8	56	c	n	1004.11	1	1000	100	0	0
095	2	17	?	N	d	619.07	NA	8	56	2	24	c	j	452.73	1	1000	1000	0	0
095	2	18	?	N	d	653.84	NA	7	56	4	24	c	j	703.11	1	100	1000	0	0
095	2	19	?	P	f	1103.51	NA	9	56	2	24	c	j	619.72	1	100	1000	0	0
095	2	20	?	P	f	1471.0	NA	8	56	4	24	c	j	503.2	1	100	100	0	0
095	2	21	?	P	f	636.47	NA	7	56	3	24	c	j	519.48	1	100	1000	0	0
095	2	22	?	P	f	1620.99	NA	7	24	4	56	i	j	886.19	0	100	100	0	0
095	2	23	?	N	d	1551.94	NA	7	56	3	24	c	j	853.38	1	100	100	0	1
095	2	24	?	N	d	469.17	NA	8	24	4	56	i	j	603.57	1	1000	1000	0	0
095	2	25	?	N	d	602.77	NA	7	24	3	56	i	j	1068.58	1	100	1000	0	0
095	2	26	?	P	f	369.48	NA	7	24	4	56	i	j	687.66	0	1000	100	0	0
095	2	27	?	P	f	302.8	NA	8	24	3	56	i	n	653.03	1	1000	1000	0	1
095	2	28	?	P	f	552.8	NA	2	24	9	56	c	n	586.68	1	1000	1000	0	0
095	2	29	?	N	d	302.14	NA	4	56	8	24	i	j	437.06	0	1000	1000	0	0
095	2	30	?	N	d	352.53	NA	9	24	3	56	i	j	619.42	1	1000	1000	0	1
095	2	31	?	N	d	285.71	NA	2	56	7	24	i	n	569.09	1	1000	100	0	0
095	2	32	?	N	d	519.62	NA	9	24	4	56	i	j	436.07	1	1000	1000	0	0
095	2	33	?	P	f	569.31	NA	8	24	2	56	i	j	720.27	0	100	1000	0	0
095	2	34	?	P	f	417.43	NA	4	56	7	24	i	n	603.52	0	1000	100	0	1
095	2	35	?	P	f	369.39	NA	3	24	7	56	c	n	734.93	1	1000	100	0	1
095	2	36	?	N	d	669.88	NA	4	24	9	56	c	n	502.34	1	1000	1000	0	0
095	2	37	?	P	f	352.79	NA	7	56	2	24	c	j	387.07	1	1000	1000	0	0
095	2	38	?	N	d	552.7	NA	9	24	4	56	i	j	1170.32	1	100	100	0	0
095	2	39	?	N	d	400.8	NA	7	24	2	56	i	j	586.76	1	1000	100	0	0
095	2	40	?	N	d	469.58	NA	9	56	4	24	c	j	586.18	1	1000	100	0	0
095	2	41	?	P	f	519.4	NA	9	24	3	56	i	n	370.01	1	100	1000	0	0
095	2	42	?	P	f	502.87	NA	7	24	2	56	i	n	486.77	1	1000	100	0	0
095	2	43	?	P	f	586.49	NA	8	24	3	56	i	n	436.04	1	100	100	0	0
095	2	44	?	P	f	336.03	NA	7	24	4	56	i	n	502.94	1	1000	100	0	0
095	2	45	?	N	d	152.51	NA	8	24	2	56	i	j	619.85	1	1000	100	0	0
095	2	46	?	N	d	552.94	NA	4	24	7	56	c	n	553.41	1	100	1000	0	0
095	2	47	?	N	d	303.0	NA	2	24	7	56	c	n	586.54	1	1000	1000	0	0
095	2	48	?	P	f	970.13	NA	3	56	9	24	i	n	736.29	0	100	100	0	0
095	2	49	?	N	d	753.15	NA	9	24	4	56	i	j	718.33	1	100	100	0	1
095	2	50	?	P	f	1136.78	NA	3	24	7	56	c	n	569.64	1	1000	100	0	0
095	2	51	?	P	f	536.32	NA	2	56	9	24	i	j	503.65	1	100	1000	0	0
095	2	52	?	P	f	436.25	NA	3	24	9	56	c	n	502.53	1	100	1000	0	0
095	2	53	?	P	f	436.22	NA	8	24	4	56	i	n	619.58	1	100	1000	0	0
095	2	54	?	N	d	336.2	NA	2	56	8	24	i	n	553.28	1	1000	1000	0	0
095	2	55	?	N	d	302.53	NA	7	56	4	24	c	j	502.94	1	1000	1000	0	0
095	2	56	?	P	f	469.75	NA	3	24	9	56	c	n	353.36	1	100	1000	0	0
095	2	57	?	P	f	218.98	NA	2	24	8	56	c	n	486.92	1	1000	1000	0	0
095	2	58	?	P	f	751.32	NA	3	24	8	56	c	n	553.23	1	100	1000	0	0
095	2	59	?	P	f	686.41	NA	4	56	7	24	i	j	403.34	1	1000	1000	0	0
095	2	60	?	P	f	386.11	NA	8	24	3	56	i	n	387.0	1	1000	1000	0	0
095	2	61	?	P	f	352.6	NA	7	56	4	24	c	j	502.97	1	1000	100	0	0
095	2	62	?	P	f	1019.62	NA	7	56	3	24	c	n	353.09	0	100	100	0	0
095	2	63	?	N	d	2372.04	NA	4	24	7	56	c	n	637.67	1	1000	100	0	1
095	2	64	?	N	d	400.47	NA	7	56	2	24	c	j	834.85	1	1000	100	0	0
095	2	65	?	N	d	636.48	NA	7	24	3	56	i	n	403.08	0	100	1000	0	0
095	3	1	?	P	f	352.47	NA	9	56	3	24	c	j	520.05	1	1000	100	-1	0
095	3	2	?	P	f	869.72	NA	9	24	2	56	i	n	484.95	1	100	100	0	0
095	3	3	?	P	f	269.38	NA	3	24	8	56	c	n	486.24	1	100	100	0	0
095	3	4	?	N	d	302.73	NA	8	24	2	56	i	j	453.54	1	100	1000	0	0
095	3	5	?	N	d	336.08	NA	4	56	7	24	i	n	770.41	1	100	100	0	0
095	3	6	?	N	d	336.18	NA	3	24	9	56	c	n	570.29	1	1000	1000	0	0
095	3	7	?	N	d	435.37	NA	9	24	2	56	i	j	503.29	1	1000	1000	0	0
095	3	8	?	P	f	318.72	NA	4	24	9	56	c	n	436.76	1	1000	1000	0	0
095	3	9	?	P	f	369.37	NA	9	56	2	24	c	j	402.67	1	100	1000	0	0
095	3	10	?	P	f	302.81	NA	9	24	3	56	i	n	536.25	1	1000	100	0	0
095	3	11	?	P	f	736.44	NA	4	56	7	24	i	j	369.18	1	100	1000	0	0
095	3	12	?	N	d	269.87	NA	3	24	9	56	c	n	636.99	1	100	1000	0	0
095	3	13	?	N	d	636.34	NA	7	56	4	24	c	j	519.83	1	1000	100	0	0
095	3	14	?	N	d	720.07	NA	2	56	8	24	i	n	569.67	1	100	1000	0	0
095	3	15	?	P	f	669.55	NA	4	24	9	56	c	n	753.71	1	100	100	0	0
095	3	16	?	P	f	870.51	NA	3	56	7	24	i	j	469.44	1	100	1000	0	0
095	3	17	?	P	f	451.16	NA	2	24	7	56	c	n	500.74	1	100	1000	0	0
095	3	18	?	P	f	569.77	NA	7	24	4	56	i	n	435.46	1	100	1000	0	0
095	3	19	?	N	d	218.83	NA	8	56	3	24	c	j	517.76	1	1000	1000	0	0
095	3	20	?	N	d	570.04	NA	2	56	7	24	i	n	903.38	1	100	100	0	0
095	3	21	?	N	d	752.35	NA	3	56	8	24	i	n	619.64	1	100	1000	0	0
095	3	22	?	N	d	502.85	NA	9	24	2	56	i	j	553.45	1	100	1000	0	0
095	3	23	?	N	d	786.65	NA	4	56	9	24	i	n	636.35	1	1000	100	0	0
095	3	24	?	P	f	753.39	NA	7	56	3	24	c	j	768.34	1	100	100	0	0
095	3	25	?	P	f	320.45	NA	2	56	9	24	i	j	603.47	1	1000	100	0	0
095	3	26	?	P	f	686.02	NA	3	24	7	56	c	n	403.66	1	1000	100	0	0
095	3	27	?	N	d	1086.82	NA	8	56	4	24	c	j	535.92	1	100	1000	0	0
095	3	28	?	P	f	286.63	NA	3	24	7	56	c	n	469.6	1	1000	100	0	0
095	3	29	?	N	d	669.87	NA	8	24	2	56	i	j	852.8	1	100	100	0	0
095	3	30	?	P	f	319.2	NA	8	56	3	24	c	j	503.19	1	1000	1000	0	0
095	3	31	?	N	d	285.9	NA	7	24	4	56	i	j	618.92	1	1000	1000	0	0
095	3	32	?	P	f	519.16	NA	7	24	2	56	i	n	1036.66	1	100	100	0	0
095	3	33	?	N	d	536.28	NA	8	24	4	56	i	j	1320.18	1	100	100	0	0
095	3	34	?	P	f	517.67	NA	3	24	7	56	c	n	452.77	1	100	1000	0	0
095	3	35	?	P	f	352.72	NA	8	24	4	56	i	n	534.89	1	1000	1000	0	0
095	3	36	?	P	f	402.62	NA	2	56	8	24	i	j	720.34	1	1000	100	0	0
095	3	37	?	N	d	786.72	NA	7	24	4	56	i	j	586.73	1	1000	1000	0	0
095	3	38	?	N	d	1587.48	NA	8	56	3	24	c	j	686.75	1	100	100	0	0
095	3	39	?	P	f	452.33	NA	9	56	4	24	c	j	786.52	1	100	100	0	0
095	3	40	?	P	f	536.21	NA	7	56	2	24	c	j	486.06	1	1000	100	0	0
095	3	41	?	P	f	302.52	NA	9	56	3	24	c	j	620.57	1	1000	1000	0	0
095	3	42	?	P	f	502.45	NA	7	56	2	24	c	j	486.34	1	1000	100	0	0
095	3	43	?	N	d	986.92	NA	4	24	9	56	c	n	452.44	1	100	1000	0	0
095	3	44	?	N	d	269.12	NA	8	56	2	24	c	j	486.14	1	1000	1000	0	0
095	3	45	?	N	d	402.68	NA	4	24	9	56	c	n	486.2	1	1000	1000	0	0
095	3	46	?	P	f	519.47	NA	3	56	9	24	i	j	569.81	1	1000	100	0	0
095	3	47	?	P	f	302.35	NA	2	24	7	56	c	n	402.59	1	1000	1000	0	0
095	3	48	?	P	f	352.79	NA	8	56	4	24	c	j	452.39	1	1000	100	0	0
095	3	49	?	P	f	1170.02	NA	7	56	2	24	c	j	769.59	1	100	1000	0	0
095	3	50	?	N	d	286.11	NA	3	56	7	24	i	n	586.42	1	1000	1000	0	0
095	3	51	?	N	d	335.85	NA	4	56	8	24	i	n	669.66	1	1000	1000	0	0
095	3	52	?	N	d	869.99	NA	9	24	2	56	i	j	719.93	1	100	100	0	0
095	3	53	?	N	d	402.62	NA	4	56	8	24	i	n	651.68	1	1000	100	0	0
095	3	54	?	P	f	286.01	NA	2	56	8	24	i	j	402.91	1	1000	1000	0	0
095	3	55	?	P	f	402.7	NA	4	24	8	56	c	n	536.28	1	1000	100	0	0
095	3	56	?	N	d	319.58	NA	8	24	3	56	i	j	684.71	1	1000	100	0	0
095	3	57	?	P	f	720.15	NA	4	24	8	56	c	n	535.75	1	100	100	0	0
095	3	58	?	N	d	386.02	NA	3	24	7	56	c	n	701.85	1	100	100	0	0
095	3	59	?	P	f	1253.98	NA	4	56	9	24	i	j	1438.0	1	100	100	0	0
095	3	60	?	N	d	552.91	NA	3	56	8	24	i	n	603.52	1	1000	1000	0	0
095	3	61	?	P	f	302.8	NA	4	24	9	56	c	n	620.35	1	1000	100	0	0
095	3	62	?	P	f	786.71	NA	7	56	2	24	c	j	419.33	1	100	1000	0	0
095	3	63	?	N	d	436.13	NA	4	56	7	24	i	n	486.2	1	100	1000	0	0
095	3	64	?	P	f	302.71	NA	9	24	3	56	i	j	770.57	0	1000	100	0	0
095	3	65	?	P	f	1086.84	NA	9	56	4	24	c	j	803.37	1	100	100	0	1
095	4	1	?	P	f	803.26	NA	9	56	4	24	c	j	604.07	1	100	100	-1	0
095	4	2	?	P	f	336.23	NA	3	24	8	56	c	n	486.49	1	100	100	0	0
095	4	3	?	P	f	352.62	NA	7	24	4	56	i	n	503.39	1	100	100	0	0
095	4	4	?	P	f	302.41	NA	8	56	2	24	c	j	502.8	1	100	1000	0	0
095	4	5	?	N	d	202.93	NA	9	56	4	24	c	j	1003.09	1	100	1000	0	0
095	4	6	?	N	d	252.42	NA	3	56	7	24	i	n	553.44	1	100	1000	0	0
095	4	7	?	N	d	202.3	NA	2	24	9	56	c	n	636.44	1	100	100	0	0
095	4	8	?	N	d	486.09	NA	8	24	3	56	i	j	736.24	1	1000	100	0	0
095	4	9	?	P	f	318.73	NA	4	24	9	56	c	n	403.34	1	1000	100	0	0
095	4	10	?	P	f	300.59	NA	2	56	7	24	i	j	402.24	1	100	100	0	0
095	4	11	?	N	d	318.73	NA	8	56	3	24	c	j	686.83	1	1000	100	0	0
095	4	12	?	P	f	419.48	NA	2	24	8	56	c	n	553.73	1	100	1000	0	0
095	4	13	?	N	d	336.58	NA	3	24	7	56	c	n	519.87	1	1000	1000	0	0
095	4	14	?	N	d	386.08	NA	8	24	4	56	i	j	669.66	1	100	100	0	0
095	4	15	?	N	d	319.32	NA	8	24	3	56	i	j	519.87	1	1000	1000	0	0
095	4	16	?	P	f	286.2	NA	2	24	7	56	c	n	502.9	1	1000	100	0	0
095	4	17	?	P	f	436.32	NA	8	56	4	24	c	j	436.33	1	100	100	0	0
095	4	18	?	P	f	1353.83	NA	3	24	8	56	c	n	401.96	1	100	1000	0	0
095	4	19	?	N	d	302.92	NA	2	56	7	24	i	n	786.27	1	1000	100	0	0
095	4	20	?	N	d	452.73	NA	7	24	3	56	i	j	603.49	1	100	1000	0	0
095	4	21	?	N	d	569.64	NA	7	24	4	56	i	j	769.7	1	100	100	0	0
095	4	22	?	N	d	535.68	NA	9	56	3	24	c	j	502.77	1	1000	1000	0	0
095	4	23	?	P	f	169.37	NA	7	56	4	24	c	j	903.86	1	1000	100	0	0
095	4	24	?	P	f	219.23	NA	3	56	7	24	i	j	720.86	1	100	1000	0	0
095	4	25	?	N	d	285.72	NA	4	24	8	56	c	n	570.05	1	1000	100	0	0
095	4	26	?	P	f	386.06	NA	3	24	7	56	c	n	586.37	1	100	1000	0	0
095	4	27	?	N	d	417.5	NA	9	56	2	24	c	j	603.23	1	1000	1000	0	0
095	4	28	?	P	f	619.65	NA	4	24	7	56	c	n	636.78	1	100	100	0	0
095	4	29	?	P	f	519.47	NA	8	56	2	24	c	j	435.7	1	1000	100	0	0
095	4	30	?	P	f	569.48	NA	4	56	8	24	i	j	467.24	1	100	1000	0	0
095	4	31	?	N	d	319.25	NA	3	56	8	24	i	n	486.26	1	1000	1000	0	0
095	4	32	?	N	d	886.31	NA	8	56	4	24	c	j	620.33	1	100	100	0	0
095	4	33	?	P	f	436.11	NA	9	24	3	56	i	n	1403.26	1	100	100	0	0
095	4	34	?	N	d	1387.36	NA	8	56	2	24	c	j	753.53	1	100	1000	0	0
095	4	35	?	P	f	519.8	NA	8	56	3	24	c	j	1135.36	1	100	100	0	0
095	4	36	?	P	f	569.66	NA	4	24	7	56	c	n	486.42	1	100	100	0	0
095	4	37	?	N	d	402.5	NA	2	56	7	24	i	n	953.75	1	1000	100	0	0
095	4	38	?	N	d	335.88	NA	4	56	9	24	i	n	601.3	1	1000	100	0	0
095	4	39	?	N	d	719.02	NA	3	56	8	24	i	n	469.46	1	100	1000	0	0
095	4	40	?	N	d	287.75	NA	8	56	4	24	c	j	569.72	1	1000	1000	0	0
095	4	41	?	P	f	202.43	NA	3	24	8	56	c	n	386.76	1	100	1000	0	0
095	4	42	?	P	f	319.39	NA	9	24	2	56	i	n	569.55	1	1000	1000	0	0
095	4	43	?	P	f	569.9	NA	9	56	3	24	c	j	703.2	1	100	1000	0	0
095	4	44	?	N	d	902.71	NA	7	24	2	56	i	j	636.97	1	100	1000	0	0
095	4	45	?	N	d	701.03	NA	8	24	3	56	i	j	635.91	1	1000	1000	0	0
095	4	46	?	N	d	720.25	NA	7	56	2	24	c	j	770.1	1	100	100	0	0
095	4	47	?	P	f	586.06	NA	9	24	3	56	i	n	386.19	1	100	1000	0	0
095	4	48	?	P	f	502.86	NA	7	24	4	56	i	n	519.5	1	100	1000	0	0
095	4	49	?	P	f	469.6	NA	7	24	2	56	i	n	519.55	1	100	100	0	0
095	4	50	?	P	f	552.89	NA	7	24	4	56	i	n	503.67	1	100	100	0	0
095	4	51	?	P	f	269.04	NA	3	56	9	24	i	j	452.92	1	100	100	0	0
095	4	52	?	N	d	369.3	NA	4	56	7	24	i	j	620.7	0	1000	1000	0	0
095	4	53	?	N	d	303.16	NA	9	24	2	56	i	j	603.42	1	1000	1000	0	1
095	4	54	?	N	d	352.57	NA	4	56	7	24	i	n	1118.12	1	1000	1000	0	0
095	4	55	?	N	d	419.41	NA	9	56	3	24	c	j	567.89	1	1000	1000	0	0
095	4	56	?	P	f	285.9	NA	9	24	4	56	i	n	484.63	1	1000	100	0	0
095	4	57	?	P	f	319.58	NA	2	56	8	24	i	j	386.42	1	1000	100	0	0
095	4	58	?	N	d	302.73	NA	7	24	4	56	i	n	520.18	0	1000	1000	0	0
095	4	59	?	N	d	602.71	NA	7	56	3	24	c	j	553.12	1	1000	100	0	1
095	4	60	?	N	d	336.0	NA	8	24	4	56	i	j	801.91	1	1000	100	0	0
095	4	61	?	N	d	352.99	NA	2	24	7	56	c	n	453.53	1	1000	1000	0	0
095	4	62	?	P	f	418.68	NA	4	24	8	56	c	n	653.14	1	1000	100	0	0
095	4	63	?	P	f	319.18	NA	2	24	8	56	c	n	586.77	1	1000	1000	0	0
095	4	64	?	P	f	402.77	NA	3	56	9	24	i	j	453.47	1	1000	100	0	0
095	4	65	?	P	f	586.05	NA	2	24	8	56	c	n	402.21	1	1000	1000	0	0
095	5	1	?	P	f	836.42	NA	4	56	8	24	i	j	1553.47	1	100	1000	-1	0
095	5	2	?	P	f	352.55	NA	2	24	8	56	c	n	403.31	1	1000	1000	0	0
095	5	3	?	N	d	185.18	NA	3	56	7	24	i	n	786.17	1	1000	100	0	0
095	5	4	?	N	d	402.08	NA	9	24	2	56	i	j	436.28	1	1000	1000	0	0
095	5	5	?	P	f	419.19	NA	9	56	3	24	c	j	419.79	1	1000	1000	0	0
095	5	6	?	P	f	269.52	NA	2	56	7	24	i	j	819.72	1	1000	100	0	0
095	5	7	?	N	d	285.27	NA	3	24	8	56	c	n	469.45	1	1000	100	0	0
095	5	8	?	N	d	603.92	NA	7	56	2	24	c	j	769.5	1	100	100	0	0
095	5	9	?	N	d	452.7	NA	7	24	4	56	i	j	603.04	1	100	1000	0	0
095	5	10	?	N	d	335.91	NA	7	24	2	56	i	j	684.85	1	1000	1000	0	0
095	5	11	?	N	d	1086.99	NA	3	24	9	56	c	n	520.2	1	100	1000	0	0
095	5	12	?	P	f	653.07	NA	2	56	7	24	i	j	486.53	1	100	100	0	0
095	5	13	?	P	f	536.48	NA	4	24	9	56	c	n	453.35	1	100	100	0	0
095	5	14	?	P	f	318.77	NA	9	24	3	56	i	n	369.49	1	1000	1000	0	0
095	5	15	?	P	f	436.2	NA	2	24	9	56	c	n	469.62	1	1000	1000	0	0
095	5	16	?	N	d	352.71	NA	7	56	4	24	c	j	519.99	1	1000	1000	0	0
095	5	17	?	P	f	452.69	NA	2	24	8	56	c	n	353.29	1	1000	1000	0	0
095	5	18	?	N	d	2.47	NA	9	56	3	24	c	j	654.09	1	1000	100	0	0
095	5	19	?	N	d	1003.46	NA	9	56	2	24	c	j	536.72	1	100	1000	0	0
095	5	20	?	N	d	435.81	NA	3	56	9	24	i	n	536.91	1	100	1000	0	0
095	5	21	?	P	f	186.21	NA	4	24	7	56	c	n	552.67	1	1000	1000	0	0
095	5	22	?	P	f	536.26	NA	2	56	8	24	i	j	568.22	1	100	100	0	0
095	5	23	?	P	f	569.32	NA	4	24	7	56	c	n	352.71	1	100	1000	0	0
095	5	24	?	N	d	268.55	NA	7	56	2	24	c	j	484.73	1	1000	100	0	0
095	5	25	?	N	d	286.34	NA	4	24	8	56	c	n	519.49	1	1000	100	0	0
095	5	26	?	N	d	653.01	NA	9	24	2	56	i	j	752.58	1	100	100	0	0
095	5	27	?	N	d	953.48	NA	4	24	9	56	c	n	485.48	1	100	100	0	0
095	5	28	?	N	d	319.08	NA	2	56	9	24	i	n	669.93	1	1000	100	0	0
095	5	29	?	N	d	586.37	NA	8	24	4	56	i	j	470.48	1	100	1000	0	0
095	5	30	?	P	f	469.71	NA	9	56	3	24	c	j	920.57	1	1000	100	0	0
095	5	31	?	P	f	719.9	NA	4	24	7	56	c	n	569.2	1	100	100	0	0
095	5	32	?	P	f	803.36	NA	2	56	9	24	i	j	533.85	1	100	1000	0	0
095	5	33	?	P	f	552.85	NA	3	56	7	24	i	j	653.38	1	100	1000	0	0
095	5	34	?	N	d	401.31	NA	2	24	9	56	c	n	553.4	1	100	100	0	0
095	5	35	?	N	d	452.85	NA	4	24	8	56	c	n	603.58	1	100	1000	0	0
095	5	36	?	P	f	235.98	NA	3	56	8	24	i	j	670.38	1	1000	1000	0	0
095	5	37	?	N	d	536.09	NA	2	24	8	56	c	n	1220.46	1	1000	100	0	0
095	5	38	?	P	f	386.12	NA	9	56	4	24	c	j	386.04	1	100	1000	0	0
095	5	39	?	N	d	603.0	NA	7	24	3	56	i	n	586.49	0	1000	100	0	0
095	5	40	?	P	f	569.44	NA	8	24	4	56	i	n	787.43	1	1000	100	0	1
095	5	41	?	N	d	569.63	NA	9	56	3	24	c	j	535.98	1	100	1000	0	0
095	5	42	?	P	f	252.33	NA	8	24	2	56	i	n	1104.03	1	1000	100	0	0
095	5	43	?	P	f	335.88	NA	4	56	8	24	i	j	485.93	1	1000	100	0	0
095	5	44	?	P	f	302.6	NA	9	56	2	24	c	j	1170.87	1	1000	1000	0	0
095	5	45	?	N	d	586.29	NA	4	56	7	24	i	j	853.08	0	100	100	0	0
095	5	46	?	N	d	719.84	NA	3	24	7	56	c	n	686.76	1	1000	100	0	1
095	5	47	?	N	d	619.26	NA	2	56	7	24	i	n	636.18	1	1000	1000	0	0
095	5	48	?	N	d	469.59	NA	4	56	7	24	i	n	702.98	1	100	100	0	0
095	5	49	?	N	d	369.57	NA	3	56	7	24	i	n	603.53	1	100	100	0	0
095	5	50	?	N	d	452.29	NA	9	56	2	24	c	j	436.86	1	100	1000	0	0
095	5	51	?	P	f	369.24	NA	9	24	3	56	i	j	820.31	0	100	100	0	0
095	5	52	?	P	f	68.45	NA	8	56	2	24	c	j	653.62	1	1000	1000	0	1
095	5	53	?	P	f	352.59	NA	7	56	3	24	c	j	502.81	1	1000	100	0	0
095	5	54	?	P	f	369.44	NA	8	56	4	24	c	j	1069.25	1	100	100	0	0
095	5	55	?	P	f	450.7	NA	8	56	2	24	c	j	703.57	1	100	100	0	0
095	5	56	?	P	f	236.13	NA	7	24	4	56	i	n	453.39	1	100	1000	0	0
095	5	57	?	N	d	1436.97	NA	3	56	7	24	i	n	619.63	1	1000	1000	0	0
095	5	58	?	N	d	202.52	NA	9	24	2	56	i	j	670.17	1	100	100	0	0
095	5	59	?	N	d	402.02	NA	8	24	3	56	i	j	619.93	1	1000	100	0	0
095	5	60	?	N	d	269.16	NA	4	56	9	24	i	n	520.12	1	100	1000	0	0
095	5	61	?	P	f	717.92	NA	3	24	8	56	c	n	635.78	1	100	1000	0	0
095	5	62	?	P	f	369.29	NA	4	56	9	24	i	j	502.92	1	1000	1000	0	0
095	5	63	?	P	f	219.36	NA	9	24	2	56	i	n	453.6	1	100	1000	0	0
095	5	64	?	P	f	302.44	NA	8	56	4	24	c	j	603.08	1	100	100	0	0
095	5	65	?	P	f	436.1	NA	7	24	2	56	i	n	369.92	1	1000	1000	0	0
095	6	1	?	P	f	1553.77	NA	8	24	4	56	i	n	519.73	1	100	100	-1	0
095	6	2	?	P	f	336.51	NA	7	24	2	56	i	n	670.33	1	100	1000	0	0
095	6	3	?	P	f	169.44	NA	3	56	9	24	i	j	453.54	1	100	1000	0	0
095	6	4	?	P	f	285.38	NA	2	24	8	56	c	n	400.65	1	1000	1000	0	0
095	6	5	?	N	d	285.99	NA	7	24	3	56	i	j	836.71	1	100	1000	0	0
095	6	6	?	N	d	853.25	NA	8	24	2	56	i	j	536.71	1	100	1000	0	0
095	6	7	?	N	d	135.27	NA	4	56	8	24	i	n	453.35	1	1000	1000	0	0
095	6	8	?	N	d	135.59	NA	9	24	3	56	i	j	402.73	1	1000	1000	0	0
095	6	9	?	P	f	186.18	NA	9	24	4	56	i	j	669.54	0	1000	100	0	0
095	6	10	?	P	f	319.14	NA	9	56	2	24	c	j	486.54	1	1000	1000	0	1
095	6	11	?	P	f	585.79	NA	4	56	7	24	i	n	469.77	0	100	100	0	0
095	6	12	?	P	f	169.3	NA	3	56	8	24	i	j	667.77	1	1000	100	0	1
095	6	13	?	P	f	319.38	NA	4	24	8	56	c	n	353.01	1	1000	1000	0	0
095	6	14	?	N	d	283.95	NA	2	24	9	56	c	n	669.04	1	1000	100	0	0
095	6	15	?	N	d	319.55	NA	8	24	4	56	i	j	436.6	1	100	1000	0	0
095	6	16	?	N	d	252.9	NA	8	24	3	56	i	j	586.56	1	1000	100	0	0
095	6	17	?	N	d	352.73	NA	2	56	7	24	i	n	486.08	1	1000	100	0	0
095	6	18	?	N	d	369.47	NA	9	24	4	56	i	j	469.47	1	1000	1000	0	0
095	6	19	?	P	f	770.08	NA	8	56	2	24	c	j	553.17	1	100	100	0	0
095	6	20	?	P	f	402.66	NA	3	56	9	24	i	j	636.47	1	100	100	0	0
095	6	21	?	P	f	302.66	NA	9	56	4	24	c	j	520.24	1	100	1000	0	0
095	6	22	?	P	f	469.69	NA	7	56	2	24	c	j	520.1	1	100	1000	0	0
095	6	23	?	P	f	219.18	NA	9	56	3	24	c	j	502.76	1	100	100	0	0
095	6	24	?	N	d	469.25	NA	4	24	7	56	c	n	636.98	1	100	1000	0	0
095	6	25	?	N	d	319.43	NA	2	24	8	56	c	n	519.45	1	1000	1000	0	0
095	6	26	?	N	d	302.66	NA	7	56	3	24	c	j	703.81	1	1000	1000	0	0
095	6	27	?	N	d	770.24	NA	9	56	2	24	c	j	703.68	1	1000	100	0	0
095	6	28	?	N	d	1585.31	NA	8	24	3	56	i	n	653.73	0	100	100	0	0
095	6	29	?	P	f	1036.09	NA	4	24	8	56	c	n	1037.31	1	100	100	0	1
095	6	30	?	P	f	200.44	NA	3	24	9	56	c	n	586.13	1	100	100	0	0
095	6	31	?	P	f	352.56	NA	7	56	2	24	c	j	353.24	1	1000	100	0	0
095	6	32	?	P	f	419.64	NA	3	24	9	56	c	n	419.45	1	100	1000	0	0
095	6	33	?	N	d	335.63	NA	8	24	2	56	i	j	517.8	1	1000	1000	0	0
095	6	34	?	P	f	569.87	NA	9	24	3	56	i	n	402.82	1	100	1000	0	0
095	6	35	?	N	d	586.69	NA	8	56	4	24	c	j	602.8	1	100	100	0	0
095	6	36	?	P	f	336.11	NA	3	24	7	56	c	n	669.37	1	1000	100	0	0
095	6	37	?	N	d	870.21	NA	2	24	8	56	c	n	736.35	1	100	100	0	0
095	6	38	?	P	f	554.09	NA	9	24	3	56	i	j	803.57	0	100	1000	0	0
095	6	39	?	P	f	1535.52	NA	9	24	2	56	i	n	519.96	1	100	1000	0	1
095	6	40	?	N	d	319.24	NA	3	24	8	56	c	n	636.25	1	1000	100	0	0
095	6	41	?	N	d	486.51	NA	7	56	2	24	c	j	619.88	1	1000	1000	0	0
095	6	42	?	P	f	319.28	NA	3	24	8	56	c	n	503.42	1	1000	1000	0	0
095	6	43	?	P	f	536.17	NA	7	56	2	24	c	j	468.84	1	100	1000	0	0
095	6	44	?	P	f	586.01	NA	4	24	8	56	c	n	370.24	1	1000	100	0	0
095	6	45	?	N	d	385.95	NA	2	56	7	24	i	j	603.46	0	100	100	0	0
095	6	46	?	N	d	1270.16	NA	3	24	7	56	c	n	502.86	1	100	100	0	1
095	6	47	?	P	f	369.3	NA	8	24	2	56	i	n	1521.45	1	1000	1000	0	0
095	6	48	?	P	f	352.86	NA	9	56	4	24	c	j	470.22	1	100	1000	0	0
095	6	49	?	N	d	102.38	NA	9	24	2	56	i	j	803.25	1	1000	1000	0	0
095	6	50	?	N	d	586.35	NA	3	24	9	56	c	n	469.46	1	100	1000	0	0
095	6	51	?	P	f	302.33	NA	8	56	4	24	c	j	519.41	1	1000	100	0	0
095	6	52	?	P	f	686.67	NA	7	56	2	24	c	j	603.61	1	100	100	0	0
095	6	53	?	N	d	469.43	NA	4	24	9	56	c	n	635.72	1	100	1000	0	0
095	6	54	?	P	f	853.04	NA	3	56	7	24	i	j	1037.31	1	100	100	0	0
095	6	55	?	P	f	752.6	NA	8	24	2	56	i	n	1587.96	1	1000	100	0	0
095	6	56	?	N	d	385.97	NA	9	24	3	56	i	j	686.32	1	1000	100	0	0
095	6	57	?	N	d	352.75	NA	8	56	4	24	c	j	653.3	1	1000	100	0	0
095	6	58	?	N	d	302.87	NA	3	56	7	24	i	n	536.81	1	1000	100	0	0
095	6	59	?	N	d	502.95	NA	2	56	7	24	i	n	619.27	1	100	100	0	0
095	6	60	?	P	f	400.71	NA	7	56	3	24	c	j	484.49	1	1000	1000	0	0
095	6	61	?	P	f	436.24	NA	9	24	4	56	i	n	435.54	1	100	100	0	0
095	6	62	?	P	f	352.9	NA	9	24	2	56	i	n	503.26	1	1000	1000	0	0
095	6	63	?	N	d	369.24	NA	3	56	8	24	i	n	484.39	1	1000	1000	0	0
095	6	64	?	P	f	2.5	NA	4	56	7	24	i	j	986.82	1	1000	100	0	0
095	6	65	?	P	f	469.28	NA	8	24	2	56	i	n	636.79	1	100	100	0	0
