subj	block	trial	task_cue	task	choice_resp	choiceRT	choice_acc	topnum	topsize	botnum	botsize	cong	task_resp	taskRT	task_acc	RSI	CSI	altRep	E1
096	1	1	N	N	f	1536.91	0	7	24	4	56	i	j	1153.42	1	100	1000	-1	0
096	1	2	P	P	d	1254.13	1	2	24	8	56	c	n	769.7	1	100	1000	1	0
096	1	3	P	P	d	1269.74	1	9	56	3	24	c	j	502.29	1	100	1000	0	0
096	1	4	P	P	d	1153.12	1	4	24	7	56	c	n	470.04	1	100	100	0	0
096	1	5	P	P	d	736.34	1	3	24	9	56	c	n	519.83	1	100	1000	0	0
096	1	6	N	N	f	869.06	0	2	24	7	56	c	n	920.29	1	1000	100	1	0
096	1	7	N	N	f	1453.81	0	7	56	4	24	c	j	603.85	1	1000	100	0	0
096	1	8	P	P	d	1069.94	1	2	56	7	24	i	j	601.1	1	100	1000	1	0
096	1	9	N	N	f	1086.53	0	8	24	3	56	i	j	684.43	1	1000	100	1	0
096	1	10	N	N	f	1470.36	0	2	56	8	24	i	n	1653.93	1	1000	100	0	0
096	1	11	P	P	d	968.23	1	4	56	8	24	i	j	453.43	1	1000	1000	1	0
096	1	12	P	P	d	1018.12	1	2	56	7	24	i	j	1553.58	1	1000	1000	0	0
096	1	13	N	N	f	669.96	0	9	24	4	56	i	j	552.94	1	1000	1000	1	0
096	1	14	P	P	d	1954.46	1	8	56	3	24	c	j	603.49	1	100	1000	1	0
096	1	15	N	N	f	853.27	0	4	56	8	24	i	n	1403.89	1	100	1000	1	0
096	1	16	P	P	d	669.61	1	7	24	2	56	i	n	452.77	1	1000	1000	1	0
096	1	17	N	N	f	736.5	0	8	56	4	24	c	j	653.14	1	100	1000	1	0
096	1	18	N	N	f	986.54	0	3	24	9	56	c	n	620.18	1	100	100	0	0
096	1	19	P	P	d	667.79	1	4	56	8	24	i	j	836.4	1	1000	100	1	0
096	1	20	N	N	f	1020.22	0	8	56	3	24	c	j	1218.58	1	100	100	1	0
096	1	21	N	N	f	886.97	0	9	24	4	56	i	j	567.69	1	1000	1000	0	0
096	1	22	N	N	f	686.47	0	3	56	9	24	i	n	636.13	1	100	1000	0	0
096	1	23	P	P	d	1070.49	1	9	24	4	56	i	n	503.47	1	100	1000	1	0
096	1	24	P	P	d	685.92	1	3	56	9	24	i	j	1437.52	1	100	1000	0	0
096	1	25	N	N	f	719.69	0	8	56	4	24	c	j	819.64	1	1000	1000	1	0
096	1	26	N	N	f	753.38	0	2	24	8	56	c	n	1386.46	1	1000	100	0	0
096	1	27	P	P	d	819.99	1	7	56	4	24	c	j	619.5	1	100	100	1	0
096	1	28	P	P	d	819.39	1	3	56	8	24	i	j	986.87	1	100	100	0	0
096	1	29	N	N	f	686.4	0	9	24	2	56	i	j	903.43	1	100	1000	1	0
096	1	30	P	P	d	703.15	1	8	24	4	56	i	n	869.99	1	1000	100	1	0
096	1	31	N	N	f	669.05	0	7	24	3	56	i	j	519.71	1	100	100	1	0
096	1	32	N	N	f	602.99	0	2	56	7	24	i	j	870.01	0	1000	1000	0	0
096	1	33	P	P	d	2354.66	1	8	56	4	24	c	j	703.9	1	1000	100	1	1
096	1	34	N	N	f	769.96	0	8	56	2	24	c	j	553.43	1	1000	100	1	0
096	1	35	N	N	f	553.0	0	3	24	7	56	c	n	487.0	1	100	1000	0	0
096	1	36	N	N	f	486.11	0	9	56	2	24	c	j	770.34	1	1000	1000	0	0
096	1	37	N	N	f	469.5	0	8	24	4	56	i	j	685.95	1	1000	100	0	0
096	1	38	P	P	d	469.14	1	2	24	9	56	c	n	936.44	1	1000	100	1	0
096	1	39	N	N	f	984.95	0	3	56	9	24	i	n	937.18	1	1000	100	1	0
096	1	40	N	N	f	535.9	0	7	56	2	24	c	j	435.79	1	100	1000	0	0
096	1	41	N	N	f	552.95	0	9	56	3	24	c	j	486.77	1	100	100	0	0
096	1	42	P	P	d	536.35	1	2	24	8	56	c	n	736.72	1	100	100	1	0
096	1	43	P	P	d	436.0	1	7	56	3	24	c	j	436.21	1	1000	100	0	0
096	1	44	P	P	d	536.36	1	8	24	4	56	i	n	2304.71	1	100	1000	0	0
096	1	45	P	P	d	469.47	1	7	24	2	56	i	n	570.26	1	1000	100	0	0
096	1	46	N	N	f	569.65	0	4	56	9	24	i	n	1036.9	1	1000	1000	1	0
096	1	47	P	P	d	986.69	1	2	56	7	24	i	j	902.84	1	100	100	1	0
096	1	48	N	N	f	736.66	0	4	24	7	56	c	n	920.29	1	100	100	1	0
096	1	49	N	N	f	450.83	0	8	24	2	56	i	j	919.31	1	100	1000	0	0
096	1	50	N	N	f	519.3	0	7	24	4	56	i	j	652.8	1	100	100	0	0
096	1	51	N	N	f	820.06	0	3	24	9	56	c	n	736.59	1	1000	1000	0	0
096	1	52	P	P	d	369.92	1	8	56	4	24	c	j	586.51	1	1000	1000	1	0
096	1	53	N	N	f	786.5	0	2	24	9	56	c	n	2237.96	1	1000	1000	1	0
096	1	54	N	N	f	703.13	0	3	56	8	24	i	n	853.68	1	100	100	0	0
096	1	55	P	P	d	636.66	1	7	24	2	56	i	n	852.88	1	100	100	1	0
096	1	56	P	P	d	752.75	1	4	24	7	56	c	n	652.92	1	1000	100	0	0
096	1	57	P	P	d	419.49	1	8	56	3	24	c	j	453.77	1	100	100	0	0
096	1	58	P	P	d	502.92	1	2	56	7	24	i	j	452.9	1	1000	100	0	0
096	1	59	P	P	d	519.67	1	8	56	3	24	c	j	402.96	1	1000	1000	0	0
096	1	60	P	P	d	636.19	1	7	24	4	56	i	n	486.29	1	100	100	0	0
096	1	61	P	P	d	436.14	1	3	24	9	56	c	n	550.69	1	1000	1000	0	0
096	1	62	N	N	d	436.31	0	4	56	8	24	i	n	1086.15	1	100	100	1	0
096	1	63	P	P	d	2254.95	1	3	24	8	56	c	n	919.72	1	1000	1000	1	0
096	1	64	P	P	d	1103.63	1	7	24	2	56	i	n	1654.45	1	1000	1000	0	0
096	1	65	N	N	f	585.78	0	4	24	7	56	c	n	969.76	1	100	1000	1	0
096	2	1	N	N	f	2103.85	0	3	56	8	24	i	n	4224.74	1	1000	1000	-1	0
096	2	2	P	P	d	919.65	1	7	24	4	56	i	n	536.19	1	100	1000	1	0
096	2	3	N	N	f	920.33	0	2	24	9	56	c	n	786.23	1	100	100	1	0
096	2	4	N	N	f	469.44	0	8	56	3	24	c	j	536.22	1	100	100	0	0
096	2	5	N	N	f	519.75	0	4	24	7	56	c	n	786.82	1	1000	100	0	0
096	2	6	P	P	d	418.84	1	8	56	3	24	c	j	569.92	1	1000	100	1	0
096	2	7	P	P	d	385.86	1	8	56	4	24	c	j	603.52	1	100	1000	0	0
096	2	8	N	N	f	786.66	0	7	56	2	24	c	j	1203.66	1	1000	1000	1	0
096	2	9	N	N	f	402.4	0	3	56	8	24	i	n	569.02	1	1000	100	0	0
096	2	10	P	P	f	336.07	1	2	56	8	24	i	j	1955.2	1	100	1000	1	0
096	2	11	N	N	f	884.73	0	8	24	3	56	i	j	1270.51	1	1000	1000	1	0
096	2	12	P	P	d	569.57	1	9	56	4	24	c	j	5808.76	1	100	1000	1	0
096	2	13	N	N	f	736.53	0	7	56	3	24	c	j	636.32	1	100	1000	1	0
096	2	14	P	P	d	603.54	1	4	56	7	24	i	j	937.2	1	1000	1000	1	0
096	2	15	P	P	d	636.47	1	7	24	2	56	i	n	769.96	1	100	1000	0	0
096	2	16	P	P	d	620.28	1	8	24	4	56	i	n	853.64	1	100	100	0	0
096	2	17	P	P	d	486.81	1	9	56	3	24	c	j	686.34	1	1000	100	0	0
096	2	18	N	N	f	669.58	0	2	24	8	56	c	n	1120.25	1	1000	100	1	0
096	2	19	N	N	f	603.03	0	9	24	4	56	i	j	486.34	1	100	1000	0	0
096	2	20	N	N	f	419.71	0	9	56	3	24	c	j	569.49	1	1000	100	0	0
096	2	21	P	P	d	652.84	1	8	56	2	24	c	j	754.24	1	1000	1000	1	0
096	2	22	P	P	d	402.54	1	3	24	7	56	c	n	353.44	1	1000	1000	0	0
096	2	23	P	P	d	602.06	1	7	24	2	56	i	n	620.02	1	1000	100	0	0
096	2	24	P	P	d	435.71	1	4	24	9	56	c	n	753.87	1	100	1000	0	0
096	2	25	P	P	d	519.0	1	7	56	3	24	c	j	1202.93	1	100	100	0	0
096	2	26	P	P	d	502.89	1	4	24	8	56	c	n	503.28	1	100	100	0	0
096	2	27	N	N	f	1153.77	0	8	56	2	24	c	j	1019.96	1	100	100	1	0
096	2	28	N	N	f	519.41	0	9	24	4	56	i	j	886.15	1	100	100	0	0
096	2	29	N	N	f	502.97	0	9	24	2	56	i	j	519.15	1	1000	100	0	0
096	2	30	N	N	f	2188.11	0	4	24	9	56	c	n	486.15	1	100	1000	0	0
096	2	31	P	P	d	433.46	1	7	24	3	56	i	n	1337.28	1	1000	100	1	0
096	2	32	N	N	f	853.31	0	8	56	2	24	c	j	453.35	1	1000	100	1	0
096	2	33	P	P	d	4707.82	1	3	24	8	56	c	n	903.42	1	1000	100	1	0
096	2	34	N	N	f	1487.17	0	2	56	7	24	i	n	535.98	1	100	1000	1	0
096	2	35	N	N	f	552.96	0	3	56	8	24	i	n	552.73	1	100	100	0	0
096	2	36	P	P	d	419.37	1	4	56	7	24	i	j	568.27	1	1000	100	1	0
096	2	37	N	N	f	653.37	0	9	24	3	56	i	j	870.52	1	100	1000	1	0
096	2	38	N	N	f	503.05	0	2	24	8	56	c	n	586.89	1	100	100	0	0
096	2	39	N	N	f	603.75	0	3	24	9	56	c	n	470.34	1	1000	1000	0	0
096	2	40	N	N	f	419.18	0	8	24	4	56	i	j	469.05	1	1000	1000	0	0
096	2	41	P	P	d	550.76	1	8	56	2	24	c	j	450.7	1	100	100	1	0
096	2	42	N	N	f	669.99	0	8	24	3	56	i	j	703.09	1	100	100	1	0
096	2	43	P	P	d	603.29	1	4	24	8	56	c	n	536.16	1	1000	1000	1	0
096	2	44	P	P	d	519.54	1	7	56	2	24	c	j	452.72	1	1000	1000	0	0
096	2	45	P	P	d	2838.08	1	3	56	7	24	i	j	1237.46	1	1000	100	0	0
096	2	46	N	N	f	402.67	0	4	56	8	24	i	n	535.81	1	1000	1000	1	0
096	2	47	P	P	d	634.46	1	3	24	8	56	c	n	369.68	1	100	1000	1	0
096	2	48	N	N	f	603.11	0	4	24	9	56	c	n	469.35	1	100	1000	1	0
096	2	49	P	P	d	669.81	1	2	56	9	24	i	j	1304.06	1	100	100	1	0
096	2	50	P	P	d	469.39	1	4	56	8	24	i	j	634.37	1	1000	1000	0	0
096	2	51	N	N	f	486.56	0	7	24	3	56	i	j	670.11	1	1000	100	1	0
096	2	52	N	N	f	419.25	0	7	56	4	24	c	j	453.14	1	1000	1000	0	0
096	2	53	N	N	f	536.39	0	2	56	9	24	i	n	819.53	1	1000	1000	0	0
096	2	54	P	P	d	620.19	1	4	24	9	56	c	n	1254.15	1	100	100	1	0
096	2	55	P	P	d	469.51	1	3	56	7	24	i	j	619.29	1	100	1000	0	0
096	2	56	P	P	d	536.32	1	9	24	2	56	i	n	469.61	1	1000	1000	0	0
096	2	57	P	P	d	603.32	1	3	56	7	24	i	j	687.31	1	100	100	0	0
096	2	58	P	P	d	469.6	1	4	24	7	56	c	n	486.66	1	1000	100	0	0
096	2	59	N	N	f	386.27	0	2	24	8	56	c	n	469.26	1	1000	1000	1	0
096	2	60	P	P	d	435.82	1	9	24	3	56	i	n	369.16	1	1000	1000	1	0
096	2	61	N	N	f	536.2	0	4	56	9	24	i	j	836.54	0	100	100	1	0
096	2	62	N	N	f	1019.97	0	8	56	3	24	c	j	586.66	1	100	1000	0	1
096	2	63	N	N	f	503.01	0	4	56	8	24	i	n	568.23	1	100	1000	0	0
096	2	64	P	P	d	451.02	1	8	24	2	56	i	n	1520.69	1	100	100	1	0
096	2	65	N	N	f	619.84	0	4	56	8	24	i	n	1083.06	1	1000	100	1	0
096	3	1	P	P	d	2171.46	1	8	56	2	24	c	j	1621.41	1	100	1000	-1	0
096	3	2	N	N	d	636.22	0	4	56	9	24	i	n	1520.88	1	100	100	1	0
096	3	3	P	P	d	1053.86	1	7	56	2	24	c	j	3105.83	1	100	1000	1	0
096	3	4	N	N	f	536.36	0	9	56	4	24	c	j	1053.74	1	100	100	1	0
096	3	5	N	N	f	653.33	0	3	56	9	24	i	n	1120.19	1	1000	1000	0	0
096	3	6	N	N	f	686.13	0	8	56	4	24	c	j	936.74	1	1000	100	0	0
096	3	7	P	P	d	567.96	1	8	24	2	56	i	j	636.63	0	100	1000	1	0
096	3	8	P	P	f	736.87	1	7	56	4	24	c	j	2387.85	1	100	100	0	1
096	3	9	N	N	f	903.54	0	9	56	2	24	c	j	901.46	1	1000	100	1	0
096	3	10	P	P	d	1170.1	1	3	56	9	24	i	j	636.67	1	100	100	1	0
096	3	11	P	P	d	602.54	1	9	24	2	56	i	n	603.11	1	100	1000	0	0
096	3	12	P	P	d	519.65	1	9	24	3	56	i	n	586.15	1	100	100	0	0
096	3	13	P	P	d	469.14	1	4	24	9	56	c	n	1353.67	1	1000	1000	0	0
096	3	14	N	N	f	403.34	0	2	56	9	24	i	n	653.11	1	1000	1000	1	0
096	3	15	P	P	d	2071.41	1	4	24	9	56	c	n	2021.83	1	1000	1000	1	0
096	3	16	N	N	f	603.06	0	2	56	7	24	i	n	1036.86	1	1000	100	1	0
096	3	17	N	N	f	636.4	0	3	56	9	24	i	n	1153.78	1	100	100	0	0
096	3	18	P	P	d	586.34	1	7	56	4	24	c	j	869.84	1	1000	100	1	0
096	3	19	N	N	f	786.32	0	3	56	9	24	i	n	953.98	1	100	1000	1	0
096	3	20	P	P	d	552.8	1	4	56	9	24	i	j	753.51	1	1000	1000	1	0
096	3	21	P	P	d	502.45	1	2	56	9	24	i	j	753.85	1	1000	100	0	0
096	3	22	P	P	d	402.95	1	9	56	3	24	c	j	687.2	1	1000	1000	0	0
096	3	23	P	P	d	519.76	1	8	24	2	56	i	n	1453.68	1	1000	100	0	0
096	3	24	N	N	f	1220.4	0	9	24	4	56	i	j	1271.08	1	100	1000	1	0
096	3	25	P	P	d	803.24	1	8	56	2	24	c	j	2588.57	1	1000	1000	1	0
096	3	26	P	P	d	1020.03	1	3	56	9	24	i	j	1219.59	1	1000	1000	0	0
096	3	27	N	N	f	435.99	0	9	24	2	56	i	j	569.74	1	1000	100	1	0
096	3	28	N	N	f	485.41	0	4	24	8	56	c	n	536.21	1	1000	100	0	0
096	3	29	N	N	f	1203.77	0	2	24	7	56	c	n	719.7	1	100	1000	0	0
096	3	30	N	N	f	435.78	0	9	56	4	24	c	j	486.64	1	100	1000	0	0
096	3	31	N	N	f	535.85	0	7	56	2	24	c	j	669.99	1	100	100	0	0
096	3	32	N	N	f	486.12	0	7	56	4	24	c	j	901.89	1	1000	1000	0	0
096	3	33	N	N	f	436.24	0	3	56	7	24	i	n	552.79	1	100	1000	0	0
096	3	34	N	N	f	469.36	0	9	24	2	56	i	j	736.51	1	100	100	0	0
096	3	35	N	N	f	402.97	0	8	24	4	56	i	j	920.91	1	100	1000	0	0
096	3	36	P	P	d	702.94	1	3	24	8	56	c	n	753.3	1	100	1000	1	0
096	3	37	N	N	f	536.37	0	9	56	4	24	c	j	1003.44	1	1000	1000	1	0
096	3	38	P	P	d	501.09	1	2	56	8	24	i	j	1070.81	1	100	1000	1	0
096	3	39	P	P	d	569.7	1	3	24	9	56	c	n	1153.6	1	1000	100	0	0
096	3	40	N	N	f	536.37	0	4	24	7	56	c	n	485.57	1	100	1000	1	0
096	3	41	P	P	d	569.09	1	7	24	3	56	i	n	953.52	1	1000	100	1	0
096	3	42	P	P	d	2371.6	1	2	56	9	24	i	j	1186.93	1	100	100	0	0
096	3	43	P	P	d	653.4	1	9	56	3	24	c	j	1204.31	1	100	1000	0	0
096	3	44	P	P	d	1020.08	1	4	56	7	24	i	j	602.88	1	100	1000	0	0
096	3	45	N	N	f	653.26	0	7	24	2	56	i	j	586.77	1	100	100	1	0
096	3	46	P	P	d	719.76	1	4	24	7	56	c	n	536.62	1	1000	100	1	0
096	3	47	P	P	d	436.0	1	9	24	3	56	i	n	586.21	1	1000	1000	0	0
096	3	48	N	N	f	402.98	0	4	24	9	56	c	n	703.21	1	1000	1000	1	0
096	3	49	P	P	d	619.25	1	3	24	8	56	c	n	953.72	1	100	100	1	0
096	3	50	N	N	f	1170.26	0	9	56	4	24	c	j	686.27	1	100	1000	1	0
096	3	51	N	N	f	586.37	0	8	24	2	56	i	j	634.79	1	1000	1000	0	0
096	3	52	N	N	f	686.42	0	3	24	8	56	c	n	436.0	1	1000	1000	0	0
096	3	53	N	N	f	703.08	0	7	24	4	56	i	j	870.08	1	1000	100	0	0
096	3	54	N	N	f	668.99	0	2	56	7	24	i	n	536.59	1	1000	100	0	0
096	3	55	N	N	f	570.15	0	3	24	7	56	c	n	520.33	1	100	100	0	0
096	3	56	P	P	d	552.44	1	2	56	8	24	i	n	703.64	0	1000	100	1	0
096	3	57	P	P	d	453.09	1	9	56	3	24	c	j	467.7	1	1000	100	0	1
096	3	58	N	N	f	836.81	0	2	24	9	56	c	n	753.87	1	100	100	1	0
096	3	59	P	P	d	602.4	1	9	24	4	56	i	n	1387.2	1	1000	1000	1	0
096	3	60	N	N	f	419.63	0	8	24	2	56	i	n	468.96	0	1000	1000	1	0
096	3	61	P	P	d	1253.13	1	7	56	3	24	c	j	819.99	1	100	100	1	1
096	3	62	N	N	f	1904.05	0	2	24	8	56	c	n	636.74	1	1000	100	1	0
096	3	63	P	P	d	519.65	1	9	24	4	56	i	n	1004.64	1	100	100	1	0
096	3	64	P	P	d	450.93	1	2	24	9	56	c	n	619.76	1	100	1000	0	0
096	3	65	P	P	d	1536.86	1	4	24	9	56	c	n	570.0	1	100	100	0	0
096	4	1	N	N	f	1654.24	0	2	56	9	24	i	n	1318.5	1	1000	100	-1	0
096	4	2	P	P	d	1237.22	1	9	24	3	56	i	n	1287.09	1	1000	100	1	0
096	4	3	N	N	f	519.5	0	8	56	4	24	c	j	1103.02	1	1000	1000	1	0
096	4	4	P	P	d	653.34	1	3	24	7	56	c	n	1070.73	1	100	100	1	0
096	4	5	P	P	d	568.94	1	8	56	4	24	c	j	803.88	1	100	100	0	0
096	4	6	N	N	f	485.92	0	3	56	8	24	i	n	869.56	1	100	100	1	0
096	4	7	P	P	d	469.82	1	4	56	7	24	i	j	536.49	1	100	1000	1	0
096	4	8	P	P	d	1053.45	1	2	56	8	24	i	j	636.91	1	100	100	0	0
096	4	9	N	N	f	469.34	0	9	24	4	56	i	j	502.85	1	100	1000	1	0
096	4	10	N	N	f	669.45	0	7	56	3	24	c	j	687.13	1	100	100	0	0
096	4	11	P	P	d	1353.84	1	9	56	4	24	c	j	953.44	1	1000	100	1	0
096	4	12	N	N	f	953.67	0	2	56	8	24	i	n	586.14	1	1000	100	1	0
096	4	13	N	N	f	3840.16	0	4	24	7	56	c	n	620.38	1	1000	1000	0	0
096	4	14	P	P	d	803.16	1	8	24	2	56	i	n	1070.4	1	1000	1000	1	0
096	4	15	N	N	f	1570.52	0	7	24	4	56	i	n	1720.57	0	100	100	1	0
096	4	16	N	N	f	1186.84	0	7	24	2	56	i	j	586.27	1	100	100	0	1
096	4	17	N	N	f	2621.95	0	8	24	3	56	i	j	2788.67	1	1000	100	0	0
096	4	18	P	P	d	536.39	1	4	56	9	24	i	j	452.7	1	1000	100	1	0
096	4	19	N	N	f	586.3	0	9	56	3	24	c	j	453.08	1	100	1000	1	0
096	4	20	P	P	d	436.27	1	8	56	4	24	c	j	836.69	1	100	100	1	0
096	4	21	P	P	d	736.31	1	2	56	8	24	i	j	1153.6	1	1000	1000	0	0
096	4	22	N	N	f	502.97	0	9	56	3	24	c	j	919.61	1	100	100	1	0
096	4	23	P	P	d	703.66	1	9	56	4	24	c	j	720.94	1	1000	1000	1	0
096	4	24	N	N	f	536.63	0	3	24	8	56	c	n	486.26	1	1000	1000	1	0
096	4	25	N	N	f	569.71	0	7	24	2	56	i	j	603.15	1	100	1000	0	0
096	4	26	N	N	f	486.1	0	4	24	9	56	c	n	520.13	1	100	1000	0	0
096	4	27	N	N	f	435.75	0	3	56	7	24	i	n	586.54	1	1000	100	0	0
096	4	28	N	N	f	636.23	0	4	24	7	56	c	n	685.53	1	1000	100	0	0
096	4	29	N	N	f	769.82	0	2	56	8	24	i	n	636.1	1	100	1000	0	0
096	4	30	P	P	d	536.18	1	3	24	8	56	c	n	436.51	1	1000	100	1	0
096	4	31	P	P	d	452.8	1	8	56	2	24	c	j	436.05	1	1000	1000	0	0
096	4	32	P	P	d	586.36	1	4	24	9	56	c	n	520.29	1	100	100	0	0
096	4	33	N	N	f	352.83	0	3	24	7	56	c	n	552.92	1	1000	100	1	0
096	4	34	N	N	f	419.22	0	2	56	8	24	i	n	502.39	1	1000	1000	0	0
096	4	35	P	P	d	519.66	1	3	56	7	24	i	j	903.13	1	100	100	1	0
096	4	36	N	N	f	720.77	0	2	24	8	56	c	n	452.83	1	100	1000	1	0
096	4	37	P	P	d	469.75	1	3	24	7	56	c	n	619.08	1	1000	1000	1	0
096	4	38	P	P	d	619.02	1	2	24	8	56	c	n	586.84	1	100	1000	0	0
096	4	39	P	P	d	719.7	1	9	56	4	24	c	j	570.26	1	1000	100	0	0
096	4	40	N	N	d	1103.93	0	2	56	9	24	i	n	517.58	1	100	1000	1	0
096	4	41	N	N	f	619.34	0	7	56	3	24	c	j	1003.86	1	100	1000	0	0
096	4	42	P	P	d	819.91	1	7	24	4	56	i	n	570.21	1	100	100	1	0
096	4	43	P	P	d	552.61	1	9	24	2	56	i	n	603.48	1	100	100	0	0
096	4	44	P	P	d	685.79	1	9	56	3	24	c	j	386.6	1	100	1000	0	0
096	4	45	P	P	d	519.47	1	7	24	4	56	i	n	787.15	1	1000	100	0	0
096	4	46	P	P	d	553.04	1	2	56	9	24	i	j	869.36	1	100	1000	0	0
096	4	47	P	P	d	519.61	1	7	24	3	56	i	n	1303.84	1	1000	1000	0	0
096	4	48	P	P	d	535.89	1	4	24	8	56	c	n	702.75	1	1000	100	0	0
096	4	49	N	N	f	536.52	0	2	56	8	24	i	n	536.07	1	1000	1000	1	0
096	4	50	N	N	f	1687.45	0	7	24	3	56	i	j	1371.34	1	1000	1000	0	0
096	4	51	N	N	f	1387.17	0	8	56	2	24	c	j	653.09	1	1000	100	0	0
096	4	52	P	P	d	620.04	1	9	24	3	56	i	n	1070.2	1	100	1000	1	0
096	4	53	P	P	d	485.84	1	4	56	9	24	i	j	936.97	1	1000	100	0	0
096	4	54	N	N	f	469.05	0	7	24	2	56	i	j	603.2	1	1000	100	1	0
096	4	55	N	N	f	1152.01	0	3	56	9	24	i	n	953.56	1	100	100	0	0
096	4	56	P	P	d	602.88	1	8	56	4	24	c	j	819.61	1	100	1000	1	0
096	4	57	N	N	f	603.6	0	9	56	2	24	c	j	586.28	1	1000	100	1	0
096	4	58	N	N	f	452.54	0	7	56	4	24	c	j	450.77	1	1000	1000	0	0
096	4	59	P	P	d	386.0	1	3	24	7	56	c	n	435.91	1	100	1000	1	0
096	4	60	P	P	d	418.95	1	2	24	8	56	c	n	519.68	1	1000	1000	0	0
096	4	61	N	N	f	737.46	0	4	24	9	56	c	n	684.59	1	100	100	1	0
096	4	62	N	N	f	502.7	0	2	24	9	56	c	n	519.76	1	100	100	0	0
096	4	63	P	P	d	536.28	1	3	56	8	24	i	j	970.07	1	1000	1000	1	0
096	4	64	P	P	d	552.81	1	8	24	2	56	i	n	787.94	1	100	1000	0	0
096	4	65	N	N	f	519.08	0	9	24	4	56	i	n	871.03	0	1000	1000	1	0
096	5	1	N	N	f	769.72	0	9	56	4	24	c	j	536.36	1	100	100	-1	0
096	5	2	P	P	d	584.49	1	8	56	2	24	c	j	503.26	1	100	1000	1	0
096	5	3	P	P	d	702.65	1	3	56	7	24	i	j	852.88	1	100	100	0	0
096	5	4	N	N	f	435.89	0	9	24	2	56	i	n	536.99	0	1000	100	1	0
096	5	5	N	N	f	603.27	0	9	56	4	24	c	j	470.24	1	100	100	0	1
096	5	6	N	N	f	452.04	0	2	24	8	56	c	n	1019.93	1	100	1000	0	0
096	5	7	P	P	d	651.94	1	3	56	8	24	i	j	886.76	1	100	100	1	0
096	5	8	P	P	d	386.09	1	8	24	2	56	i	n	836.97	1	1000	1000	0	0
096	5	9	N	N	f	536.99	0	7	56	4	24	c	j	519.26	1	100	100	1	0
096	5	10	P	P	d	486.17	1	3	24	8	56	c	n	434.73	1	1000	1000	1	0
096	5	11	P	P	d	603.09	1	4	24	8	56	c	n	486.41	1	100	1000	0	0
096	5	12	P	P	d	435.8	1	3	24	7	56	c	n	419.31	1	1000	1000	0	0
096	5	13	N	N	f	1053.55	0	4	24	7	56	c	n	619.52	1	1000	100	1	0
096	5	14	N	N	f	602.79	0	9	56	3	24	c	j	452.94	1	1000	1000	0	0
096	5	15	N	N	f	336.22	0	9	24	4	56	i	n	700.84	0	100	100	0	0
096	5	16	P	P	d	653.03	1	3	24	7	56	c	n	919.76	1	100	100	1	1
096	5	17	P	P	d	603.2	1	4	24	9	56	c	n	720.33	1	100	100	0	0
096	5	18	P	P	d	452.54	1	7	24	3	56	i	n	803.83	1	100	100	0	0
096	5	19	P	P	d	403.13	1	9	24	4	56	i	n	536.2	1	100	1000	0	0
096	5	20	P	P	d	368.93	1	3	56	9	24	i	j	569.92	1	100	1000	0	0
096	5	21	P	P	d	1136.9	1	7	56	2	24	c	j	503.11	1	100	1000	0	0
096	5	22	N	N	f	486.46	0	4	56	9	24	i	n	570.21	1	100	1000	1	0
096	5	23	N	N	f	386.48	0	8	24	3	56	i	j	970.69	1	1000	1000	0	0
096	5	24	P	P	d	485.76	1	8	56	2	24	c	j	386.74	1	1000	1000	1	0
096	5	25	P	P	d	419.56	1	4	56	7	24	i	j	1135.55	1	1000	1000	0	0
096	5	26	N	N	f	619.25	0	8	56	2	24	c	j	502.31	1	100	1000	1	0
096	5	27	P	P	d	686.48	1	4	56	7	24	i	j	619.34	1	1000	100	1	0
096	5	28	N	N	f	502.54	0	7	24	3	56	i	j	486.66	1	100	1000	1	0
096	5	29	P	P	d	603.39	1	8	24	4	56	i	n	1270.99	1	1000	1000	1	0
096	5	30	P	P	d	469.76	1	2	24	9	56	c	n	669.72	1	1000	100	0	0
096	5	31	N	N	f	803.26	0	9	24	4	56	i	j	4107.58	1	1000	1000	1	0
096	5	32	N	N	f	803.11	0	7	24	3	56	i	j	585.3	1	1000	100	0	0
096	5	33	N	N	f	402.79	0	4	56	7	24	i	n	617.96	1	1000	100	0	0
096	5	34	P	P	d	735.82	1	3	24	8	56	c	n	819.75	1	1000	100	1	0
096	5	35	P	P	d	469.34	1	8	56	2	24	c	j	503.9	1	1000	100	0	0
096	5	36	P	P	d	553.0	1	3	56	8	24	i	j	785.86	1	1000	100	0	0
096	5	37	N	N	f	802.98	0	8	24	4	56	i	j	869.97	1	100	100	1	0
096	5	38	N	N	f	519.38	0	8	56	2	24	c	j	967.82	1	100	1000	0	0
096	5	39	P	P	d	4023.63	1	3	24	7	56	c	n	519.76	1	100	1000	1	0
096	5	40	N	N	f	719.94	0	8	56	4	24	c	j	686.21	1	1000	100	1	0
096	5	41	N	N	f	485.93	0	3	56	9	24	i	n	502.79	1	100	1000	0	0
096	5	42	N	N	f	552.38	0	4	56	8	24	i	n	569.62	1	100	100	0	0
096	5	43	P	P	d	503.56	1	7	24	3	56	i	n	451.37	1	100	1000	1	0
096	5	44	N	N	f	551.0	0	4	24	8	56	c	n	500.51	1	1000	1000	1	0
096	5	45	N	N	f	536.11	0	3	24	7	56	c	n	536.17	1	1000	1000	0	0
096	5	46	N	N	f	569.54	0	4	56	9	24	i	n	486.46	1	1000	1000	0	0
096	5	47	N	N	f	452.98	0	3	24	9	56	c	n	669.51	1	1000	100	0	0
096	5	48	N	N	f	553.02	0	2	24	9	56	c	n	485.43	1	100	100	0	0
096	5	49	N	N	f	486.39	0	9	24	4	56	i	j	486.21	1	100	1000	0	0
096	5	50	P	P	d	353.14	1	8	56	3	24	c	j	636.56	1	1000	100	1	0
096	5	51	N	N	f	519.27	0	4	24	9	56	c	n	419.29	1	100	1000	1	0
096	5	52	P	P	f	450.66	1	3	56	7	24	i	j	569.44	1	1000	1000	1	0
096	5	53	P	P	d	736.48	1	8	56	4	24	c	j	954.3	1	1000	1000	0	0
096	5	54	N	N	f	519.7	0	3	24	7	56	c	n	517.55	1	100	100	1	0
096	5	55	P	P	d	720.0	1	7	24	4	56	i	n	1570.14	1	1000	100	1	0
096	5	56	N	N	f	603.18	0	3	56	7	24	i	n	1237.41	1	1000	100	1	0
096	5	57	N	N	f	1804.37	0	9	56	2	24	c	j	703.17	1	1000	100	0	0
096	5	58	P	P	d	1136.83	1	9	56	4	24	c	j	903.35	1	100	100	1	0
096	5	59	N	N	f	602.66	0	2	56	7	24	i	n	569.67	1	100	100	1	0
096	5	60	P	P	d	636.47	1	4	56	7	24	i	j	1087.28	1	100	1000	1	0
096	5	61	P	P	d	719.15	1	7	24	3	56	i	n	1787.64	1	1000	100	0	0
096	5	62	P	P	d	619.13	1	9	56	4	24	c	j	1704.92	1	100	100	0	0
096	5	63	N	N	f	769.45	0	3	56	9	24	i	n	453.59	1	1000	1000	1	0
096	5	64	P	P	f	420.16	1	7	24	2	56	i	n	1387.7	1	100	100	1	0
096	5	65	N	N	f	1971.2	0	9	56	3	24	c	j	1053.56	1	1000	1000	1	0
096	6	1	N	N	f	753.04	0	3	24	7	56	c	n	569.19	1	100	100	-1	0
096	6	2	P	P	d	653.15	1	8	24	4	56	i	n	686.51	1	1000	1000	1	0
096	6	3	N	N	f	636.65	0	3	24	7	56	c	n	952.7	1	1000	1000	1	0
096	6	4	N	N	f	553.08	0	9	56	4	24	c	j	586.37	1	1000	100	0	0
096	6	5	P	P	d	585.82	1	3	24	9	56	c	n	452.81	1	1000	100	1	0
096	6	6	P	P	d	519.54	1	4	24	8	56	c	n	586.44	1	1000	1000	0	0
096	6	7	N	N	f	519.24	0	3	56	8	24	i	n	1153.73	1	1000	1000	1	0
096	6	8	P	P	d	552.98	1	9	24	2	56	i	n	1520.67	1	100	100	1	0
096	6	9	P	P	d	752.78	1	9	56	3	24	c	j	837.13	1	100	100	0	0
096	6	10	P	P	d	552.31	1	9	24	4	56	i	n	803.95	1	1000	1000	0	0
096	6	11	P	P	d	568.91	1	3	56	8	24	i	j	786.25	1	1000	100	0	0
096	6	12	N	N	f	686.55	0	2	56	9	24	i	n	417.5	1	100	1000	1	0
096	6	13	N	N	f	485.66	0	4	56	8	24	i	j	887.25	0	1000	1000	0	0
096	6	14	N	N	f	519.48	0	7	24	2	56	i	j	720.58	1	1000	1000	0	1
096	6	15	P	P	d	484.53	1	3	56	7	24	i	j	536.08	1	1000	1000	1	0
096	6	16	N	N	f	651.29	0	9	56	2	24	c	j	652.99	1	100	1000	1	0
096	6	17	P	P	d	870.09	1	3	24	9	56	c	n	503.54	1	100	1000	1	0
096	6	18	N	N	f	502.45	0	7	24	4	56	i	j	636.25	1	100	100	1	0
096	6	19	N	N	f	502.98	0	9	56	2	24	c	j	603.16	1	100	100	0	0
096	6	20	P	P	d	419.74	1	3	24	8	56	c	n	619.46	1	1000	1000	1	0
096	6	21	P	P	d	469.29	1	2	56	8	24	i	j	1320.57	1	1000	1000	0	0
096	6	22	N	N	f	2004.61	0	3	24	9	56	c	n	917.99	1	1000	100	1	0
096	6	23	N	N	f	652.78	0	2	24	7	56	c	n	669.52	1	1000	1000	0	0
096	6	24	P	P	d	2688.94	1	7	24	4	56	i	n	1103.49	1	1000	100	1	0
096	6	25	N	N	f	769.84	0	7	56	3	24	c	j	1070.99	1	1000	1000	1	0
096	6	26	N	N	f	434.3	0	2	24	8	56	c	j	702.78	0	1000	100	0	0
096	6	27	N	N	f	903.88	0	3	56	7	24	i	n	669.91	1	100	1000	0	1
096	6	28	P	P	d	736.99	1	2	56	8	24	i	j	853.54	1	100	100	1	0
096	6	29	P	P	d	435.59	1	4	24	8	56	c	n	719.9	1	100	1000	0	0
096	6	30	P	P	d	569.75	1	3	56	7	24	i	j	569.69	1	100	100	0	0
096	6	31	P	P	d	519.58	1	8	56	4	24	c	j	502.88	1	1000	100	0	0
096	6	32	N	N	f	619.9	0	9	56	2	24	c	j	452.8	1	100	100	1	0
096	6	33	N	N	f	400.66	0	3	56	7	24	i	n	686.55	1	100	100	0	0
096	6	34	P	P	d	519.7	1	2	24	7	56	c	n	1904.16	1	100	100	1	0
096	6	35	P	P	d	736.21	1	8	56	4	24	c	j	619.88	1	100	1000	0	0
096	6	36	P	P	d	568.95	1	3	56	7	24	i	j	1651.84	1	100	1000	0	0
096	6	37	P	P	d	552.94	1	8	24	2	56	i	n	486.02	1	100	100	0	0
096	6	38	N	N	f	536.27	0	8	24	3	56	i	j	786.6	1	100	1000	1	0
096	6	39	P	P	f	352.54	1	7	56	4	24	c	j	1204.49	1	1000	100	1	0
096	6	40	N	N	f	1871.16	0	7	24	2	56	i	n	736.7	0	1000	100	1	0
096	6	41	P	P	d	853.48	1	3	56	7	24	i	j	653.64	1	1000	100	1	1
096	6	42	P	P	d	567.6	1	7	56	2	24	c	j	552.87	1	1000	1000	0	0
096	6	43	N	N	f	569.62	0	4	24	8	56	c	n	419.28	1	100	1000	1	0
096	6	44	N	N	f	519.47	0	3	24	9	56	c	n	553.73	1	100	100	0	0
096	6	45	N	N	f	552.87	0	9	24	4	56	i	j	519.58	1	1000	100	0	0
096	6	46	N	N	f	402.45	0	8	56	2	24	c	j	753.38	1	100	1000	0	0
096	6	47	N	N	f	386.61	0	4	56	8	24	i	n	519.8	1	1000	100	0	0
096	6	48	P	P	d	620.21	1	7	56	2	24	c	j	403.32	1	100	100	1	0
096	6	49	N	N	f	486.04	0	8	24	3	56	i	j	703.61	1	1000	1000	1	0
096	6	50	P	P	d	519.92	1	8	56	2	24	c	j	386.62	1	100	1000	1	0
096	6	51	P	P	d	1086.38	1	9	24	4	56	i	n	1270.26	1	1000	100	0	0
096	6	52	N	N	f	1170.44	0	2	56	7	24	i	n	686.2	1	1000	100	1	0
096	6	53	P	P	d	619.65	1	9	24	3	56	i	n	467.55	1	100	1000	1	0
096	6	54	P	P	d	869.42	1	7	24	2	56	i	n	936.53	1	100	1000	0	0
096	6	55	P	P	d	536.3	1	4	24	7	56	c	n	553.16	1	100	100	0	0
096	6	56	N	N	f	669.95	0	3	24	8	56	c	n	486.72	1	100	100	1	0
096	6	57	N	N	f	434.26	0	4	24	7	56	c	n	500.97	1	100	1000	0	0
096	6	58	P	P	d	751.56	1	8	56	2	24	c	j	1069.66	1	1000	1000	1	0
096	6	59	N	N	f	2155.11	0	4	56	7	24	i	n	1954.87	1	100	100	1	0
096	6	60	P	P	d	4223.93	1	3	56	7	24	i	j	502.61	1	100	1000	1	0
096	6	61	P	P	d	686.06	1	4	24	7	56	c	n	620.01	1	1000	100	0	0
096	6	62	N	N	f	436.12	0	7	56	2	24	c	j	519.95	1	1000	100	1	0
096	6	63	N	N	f	502.08	0	7	24	4	56	i	j	586.31	1	100	1000	0	0
096	6	64	N	N	f	485.55	0	7	24	2	56	i	j	586.86	1	100	100	0	0
096	6	65	N	N	f	452.88	0	9	56	3	24	c	j	453.25	1	1000	1000	0	0
