subj	block	trial	task_cue	task	choice_resp	choiceRT	choice_acc	topnum	topsize	botnum	botsize	cong	task_resp	taskRT	task_acc	RSI	CSI	altRep	E1
102	1	1	P	P	d	16837.45	1	3	24	7	56	c	n	7060.85	1	1000	100	-1	0
102	1	2	P	P	d	4374.06	1	7	24	4	56	i	n	3823.75	1	100	1000	0	0
102	1	3	P	P	d	6442.31	1	2	24	8	56	c	n	1553.85	1	1000	1000	0	0
102	1	4	N	N	f	2705.55	0	8	24	3	56	i	j	12665.58	1	1000	100	1	0
102	1	5	N	N	f	1537.07	0	2	24	8	56	c	j	719.35	0	1000	1000	0	0
102	1	6	N	N	f	2221.13	0	3	56	7	24	i	n	3139.53	1	100	100	0	1
102	1	7	N	N	f	2655.06	0	9	24	2	56	i	j	6910.18	1	1000	1000	0	0
102	1	8	P	P	d	1270.44	1	3	24	9	56	c	n	2355.38	1	1000	1000	1	0
102	1	9	P	P	d	1720.34	1	2	24	7	56	c	n	903.03	1	100	1000	0	0
102	1	10	N	N	f	1603.96	0	4	56	8	24	i	n	5541.22	1	100	1000	1	0
102	1	11	P	P	f	1337.49	1	8	56	3	24	c	j	6292.51	1	100	100	1	0
102	1	12	N	N	d	1587.11	0	9	56	4	24	c	j	2736.57	1	100	100	1	0
102	1	13	N	N	d	2754.94	0	2	24	7	56	c	n	1954.42	1	1000	100	0	0
102	1	14	P	P	f	1086.97	1	4	56	8	24	i	j	2388.0	1	100	100	1	0
102	1	15	N	N	d	2872.08	0	3	24	9	56	c	n	3122.95	1	100	100	1	0
102	1	16	N	N	d	2805.41	0	7	56	2	24	c	j	1504.1	1	1000	1000	0	0
102	1	17	P	P	f	636.39	1	4	24	9	56	c	n	1754.44	1	1000	100	1	0
102	1	18	N	N	d	1520.77	0	3	24	8	56	c	n	1103.34	1	1000	100	1	0
102	1	19	P	P	f	3103.98	1	4	56	8	24	i	j	1370.13	1	100	1000	1	0
102	1	20	P	P	f	970.19	1	3	24	7	56	c	n	1153.43	1	1000	100	0	0
102	1	21	N	N	d	1020.14	0	7	56	2	24	c	j	953.35	1	100	1000	1	0
102	1	22	P	P	f	2004.21	1	3	56	9	24	i	j	1921.8	1	1000	1000	1	0
102	1	23	P	P	f	970.16	1	7	24	2	56	i	n	2272.38	1	1000	1000	0	0
102	1	24	N	N	d	4123.67	0	3	56	7	24	i	n	1384.44	1	100	100	1	0
102	1	25	P	P	f	953.0	1	7	56	4	24	c	j	2035.84	1	1000	1000	1	0
102	1	26	P	P	f	1704.05	1	7	24	3	56	i	n	1570.67	1	100	100	0	0
102	1	27	N	N	d	786.78	0	7	24	4	56	i	j	1020.59	1	100	100	1	0
102	1	28	N	N	f	1169.46	0	7	24	3	56	i	j	5074.96	1	100	100	0	0
102	1	29	N	N	d	1486.89	0	2	56	9	24	i	n	7244.07	1	100	1000	0	0
102	1	30	P	P	f	769.17	1	7	24	4	56	i	n	4341.25	1	100	1000	1	0
102	1	31	N	N	d	803.11	0	7	56	3	24	c	j	1253.67	1	1000	100	1	0
102	1	32	P	P	f	803.22	1	8	56	2	24	c	j	736.88	1	1000	100	1	0
102	1	33	N	N	d	652.98	0	8	24	3	56	i	j	1637.88	1	100	1000	1	0
102	1	34	N	N	d	1386.79	0	2	24	8	56	c	n	4690.8	1	100	1000	0	0
102	1	35	P	P	f	770.08	1	3	24	8	56	c	n	9696.52	1	100	1000	1	0
102	1	36	P	P	f	1420.41	1	7	56	4	24	c	j	369.47	1	100	1000	0	0
102	1	37	P	P	f	786.49	1	9	56	3	24	c	j	619.64	1	1000	1000	0	0
102	1	38	N	N	d	1621.67	0	2	24	8	56	c	n	2905.39	1	1000	1000	1	0
102	1	39	N	N	d	769.41	0	3	24	7	56	c	n	586.94	1	100	100	0	0
102	1	40	P	P	f	851.25	1	9	24	4	56	i	n	1754.31	1	1000	1000	1	0
102	1	41	N	N	d	636.55	0	2	56	9	24	i	n	1604.27	1	1000	100	1	0
102	1	42	N	N	d	569.65	0	9	56	4	24	c	j	737.13	1	1000	100	0	0
102	1	43	N	N	d	535.77	0	3	56	8	24	i	n	736.49	1	1000	100	0	0
102	1	44	P	P	f	919.5	1	7	24	2	56	i	n	1070.73	1	1000	100	1	0
102	1	45	N	N	d	937.0	0	4	56	7	24	i	n	1653.54	1	1000	1000	1	0
102	1	46	N	N	d	652.42	0	3	56	8	24	i	j	2672.43	0	1000	1000	0	0
102	1	47	N	N	d	1287.04	0	9	56	4	24	c	j	1204.22	1	100	100	0	1
102	1	48	N	N	d	636.28	0	7	56	2	24	c	j	719.58	1	100	1000	0	0
102	1	49	N	N	d	803.25	0	7	24	4	56	i	j	1287.19	1	1000	100	0	0
102	1	50	N	N	d	853.71	0	7	24	3	56	i	j	1270.99	1	100	1000	0	0
102	1	51	P	P	f	2321.88	1	8	24	4	56	i	n	3856.82	1	100	100	1	0
102	1	52	P	P	f	617.64	1	2	56	8	24	i	j	1553.92	1	100	1000	0	0
102	1	53	P	P	f	600.44	1	7	56	3	24	c	j	570.08	1	100	100	0	0
102	1	54	N	N	d	819.68	0	4	24	7	56	c	n	419.67	1	100	1000	1	0
102	1	55	P	P	f	736.54	1	8	56	2	24	c	j	1369.9	1	100	1000	1	0
102	1	56	P	P	f	736.24	1	3	24	8	56	c	n	636.36	1	100	100	0	0
102	1	57	P	P	f	819.06	1	2	56	7	24	i	j	1387.3	1	100	100	0	0
102	1	58	P	P	f	552.88	1	9	24	4	56	i	n	536.08	1	1000	100	0	0
102	1	59	P	P	f	853.05	1	2	56	8	24	i	j	1738.06	1	1000	1000	0	0
102	1	60	N	N	d	553.34	0	7	56	3	24	c	j	1587.12	1	1000	1000	1	0
102	1	61	P	P	f	836.57	1	4	24	8	56	c	n	687.11	1	100	100	1	0
102	1	62	P	P	f	535.93	1	3	56	7	24	i	j	2936.64	1	1000	100	0	0
102	1	63	P	P	f	1871.17	1	8	56	4	24	c	j	703.81	1	1000	100	0	0
102	1	64	N	N	d	1219.98	0	9	24	3	56	i	n	1003.28	0	1000	1000	1	0
102	1	65	P	P	d	852.77	1	2	56	9	24	i	j	4405.72	1	1000	100	1	1
102	2	1	N	N	d	2038.43	0	3	56	8	24	i	n	4521.93	1	1000	1000	-1	0
102	2	2	N	N	d	3189.14	0	8	24	2	56	i	j	736.24	1	100	1000	0	0
102	2	3	N	N	d	3105.85	0	3	56	9	24	i	n	969.58	1	100	100	0	0
102	2	4	N	N	d	569.65	0	4	24	7	56	c	n	569.95	1	100	100	0	0
102	2	5	N	N	d	502.87	0	9	24	2	56	i	j	636.91	1	100	100	0	0
102	2	6	P	P	f	703.16	1	7	56	3	24	c	j	936.68	1	1000	100	1	0
102	2	7	N	N	d	953.6	0	2	56	9	24	i	n	1037.52	1	1000	1000	1	0
102	2	8	P	P	f	686.79	1	8	24	3	56	i	n	2455.26	1	1000	100	1	0
102	2	9	N	N	d	552.76	0	9	24	2	56	i	j	953.26	1	1000	100	1	0
102	2	10	P	P	f	852.84	1	3	56	7	24	i	j	1203.73	1	100	1000	1	0
102	2	11	N	N	d	736.81	0	4	24	7	56	c	n	736.46	1	100	100	1	0
102	2	12	P	P	f	519.73	1	8	24	3	56	i	n	919.48	1	100	100	1	0
102	2	13	N	N	d	736.44	0	9	56	4	24	c	j	2105.13	1	1000	1000	1	0
102	2	14	N	N	d	535.64	0	9	56	3	24	c	j	870.43	1	1000	100	0	0
102	2	15	N	N	d	535.96	0	4	56	8	24	i	n	1287.32	1	100	1000	0	0
102	2	16	P	P	f	1120.64	1	2	24	8	56	c	n	3656.81	1	100	1000	1	0
102	2	17	N	N	d	619.66	0	7	56	3	24	c	j	2555.71	1	100	1000	1	0
102	2	18	P	P	f	936.76	1	9	24	4	56	i	n	1938.66	1	1000	1000	1	0
102	2	19	N	N	d	519.65	0	8	24	3	56	i	j	3171.69	1	100	1000	1	0
102	2	20	N	N	d	469.56	0	7	24	4	56	i	j	834.95	1	1000	1000	0	0
102	2	21	P	P	f	452.23	1	2	24	7	56	c	n	553.32	1	1000	100	1	0
102	2	22	N	N	d	619.72	0	4	24	8	56	c	n	786.04	1	1000	100	1	0
102	2	23	P	P	f	586.63	1	7	56	3	24	c	j	3089.15	1	100	100	1	0
102	2	24	P	P	f	586.05	1	4	56	8	24	i	j	987.23	1	1000	100	0	0
102	2	25	N	N	d	602.75	0	8	56	2	24	c	j	920.19	1	1000	100	1	0
102	2	26	P	P	f	719.83	1	3	24	9	56	c	n	1504.37	1	1000	1000	1	0
102	2	27	P	P	f	969.85	1	4	56	9	24	i	n	1587.68	0	100	100	0	0
102	2	28	N	N	d	1387.6	0	2	24	8	56	c	n	902.51	1	100	1000	1	1
102	2	29	P	P	f	470.03	1	4	56	7	24	i	j	1787.02	1	1000	1000	1	0
102	2	30	P	P	f	619.88	1	8	56	2	24	c	j	553.07	1	100	100	0	0
102	2	31	N	N	d	935.98	0	3	56	8	24	i	n	2604.97	1	100	1000	1	0
102	2	32	N	N	d	669.95	0	7	56	2	24	c	j	652.78	1	100	1000	0	0
102	2	33	P	P	f	652.37	1	9	24	4	56	i	n	2321.35	1	100	1000	1	0
102	2	34	N	N	d	686.89	0	3	24	8	56	c	n	1136.67	1	1000	1000	1	0
102	2	35	P	P	f	635.89	1	9	56	4	24	c	j	986.66	1	100	1000	1	0
102	2	36	P	P	f	1153.23	1	2	56	8	24	i	j	1036.23	1	1000	1000	0	0
102	2	37	N	N	d	753.22	0	9	24	3	56	i	j	2672.63	1	1000	1000	1	0
102	2	38	P	P	f	769.74	1	4	56	9	24	i	j	1337.78	1	1000	100	1	0
102	2	39	P	P	f	585.74	1	9	24	2	56	i	n	686.35	1	1000	1000	0	0
102	2	40	P	P	f	786.39	1	8	56	4	24	c	j	770.06	1	1000	100	0	0
102	2	41	N	N	d	1954.04	0	7	24	3	56	i	j	769.43	1	100	100	1	0
102	2	42	N	N	d	636.51	0	2	56	8	24	i	n	3320.58	1	1000	100	0	0
102	2	43	P	P	f	585.84	1	3	56	8	24	i	j	636.94	1	100	100	1	0
102	2	44	P	P	f	419.37	1	4	24	7	56	c	n	519.78	1	100	1000	0	0
102	2	45	N	N	d	586.34	0	2	56	7	24	i	n	836.66	1	100	100	1	0
102	2	46	N	N	d	519.13	0	3	56	9	24	i	n	1087.28	1	1000	1000	0	0
102	2	47	N	N	d	369.73	0	2	24	9	56	c	n	569.82	1	1000	1000	0	0
102	2	48	N	N	d	1237.32	0	7	56	3	24	c	j	836.36	1	100	100	0	0
102	2	49	N	N	d	602.12	0	9	24	4	56	i	j	819.34	1	1000	100	0	0
102	2	50	N	N	d	452.78	0	8	56	3	24	c	j	803.1	1	1000	1000	0	0
102	2	51	P	P	f	1003.78	1	4	24	8	56	c	n	535.85	1	100	100	1	0
102	2	52	P	P	f	484.22	1	9	24	2	56	i	n	553.81	1	100	100	0	0
102	2	53	P	P	f	436.31	1	9	24	4	56	i	n	486.99	1	100	1000	0	0
102	2	54	P	P	f	402.39	1	9	24	3	56	i	n	518.91	1	1000	100	0	0
102	2	55	N	N	d	619.19	0	2	56	9	24	i	n	1004.53	1	1000	100	1	0
102	2	56	N	N	d	703.14	0	3	24	8	56	c	n	919.91	1	1000	100	0	0
102	2	57	N	N	d	619.86	0	2	24	7	56	c	n	869.22	1	100	1000	0	0
102	2	58	P	P	f	436.33	1	9	56	4	24	c	j	553.08	1	1000	1000	1	0
102	2	59	P	P	f	853.55	1	3	24	7	56	c	n	670.03	1	100	100	0	0
102	2	60	P	P	f	402.72	1	7	56	4	24	c	j	402.9	1	100	1000	0	0
102	2	61	P	P	f	453.17	1	3	24	9	56	c	n	486.04	1	1000	1000	0	0
102	2	62	P	P	f	352.78	1	4	24	9	56	c	n	686.65	1	1000	100	0	0
102	2	63	P	P	f	419.42	1	3	56	7	24	i	j	670.02	1	100	1000	0	0
102	2	64	P	P	f	435.58	1	7	56	2	24	c	j	520.17	1	1000	1000	0	0
102	2	65	N	N	d	669.1	0	7	56	3	24	c	j	686.58	1	100	100	1	0
102	3	1	N	N	d	719.18	0	4	56	7	24	i	n	903.2	1	100	100	-1	0
102	3	2	P	P	f	803.07	1	7	56	2	24	c	j	787.34	1	1000	100	1	0
102	3	3	P	P	f	619.81	1	3	56	7	24	i	j	1887.71	1	100	100	0	0
102	3	4	P	P	f	335.91	1	2	56	9	24	i	j	619.37	1	1000	100	0	0
102	3	5	N	N	f	386.64	0	7	24	4	56	i	j	1153.65	1	100	1000	1	0
102	3	6	P	P	f	569.63	1	8	24	2	56	i	n	2404.51	1	100	100	1	0
102	3	7	N	N	d	586.33	0	4	56	9	24	i	n	1170.94	1	100	1000	1	0
102	3	8	N	N	d	385.82	0	7	24	3	56	i	j	870.48	1	1000	100	0	0
102	3	9	N	N	d	436.08	0	2	56	9	24	i	n	803.48	1	1000	100	0	0
102	3	10	N	N	d	335.55	0	9	56	4	24	c	j	753.6	1	1000	100	0	0
102	3	11	N	N	d	452.79	0	9	24	2	56	i	j	703.16	1	1000	1000	0	0
102	3	12	P	P	f	803.15	1	8	56	4	24	c	j	753.78	1	100	1000	1	0
102	3	13	P	P	f	319.15	1	8	56	2	24	c	j	635.47	1	1000	100	0	0
102	3	14	N	N	d	719.93	0	3	56	9	24	i	n	1203.79	1	1000	1000	1	0
102	3	15	P	P	f	786.59	1	2	56	9	24	i	j	920.32	1	100	100	1	0
102	3	16	P	P	f	486.0	1	7	24	3	56	i	n	486.69	1	100	100	0	0
102	3	17	P	P	f	419.33	1	8	56	4	24	c	j	486.27	1	100	100	0	0
102	3	18	N	N	f	386.1	0	2	24	9	56	c	n	1935.93	1	100	1000	1	0
102	3	19	N	N	d	3806.41	0	9	56	4	24	c	j	1051.88	1	100	1000	0	0
102	3	20	P	P	f	803.25	1	2	56	7	24	i	j	1303.6	1	1000	1000	1	0
102	3	21	P	P	f	317.26	1	8	24	4	56	i	n	502.62	1	1000	100	0	0
102	3	22	N	N	f	635.73	0	2	24	8	56	c	n	1454.2	1	1000	1000	1	0
102	3	23	N	N	d	1053.24	0	4	56	7	24	i	n	5558.22	1	100	100	0	0
102	3	24	N	N	d	1086.31	0	9	24	3	56	i	j	2605.89	1	100	1000	0	0
102	3	25	N	N	d	502.67	0	7	56	2	24	c	j	1220.59	1	1000	1000	0	0
102	3	26	P	P	f	870.23	1	8	56	3	24	c	j	502.83	1	100	100	1	0
102	3	27	P	P	f	335.4	1	9	24	2	56	i	n	1420.77	1	1000	1000	0	0
102	3	28	N	N	d	653.55	0	3	56	7	24	i	n	2555.48	1	100	100	1	0
102	3	29	N	N	d	469.47	0	4	24	9	56	c	n	987.11	1	1000	100	0	0
102	3	30	P	P	f	2488.4	1	3	24	9	56	c	n	653.28	1	1000	100	1	0
102	3	31	P	P	f	369.51	1	4	24	8	56	c	n	551.24	1	1000	1000	0	0
102	3	32	N	N	d	485.77	0	8	56	2	24	c	j	4005.04	1	1000	100	1	0
102	3	33	P	P	f	785.94	1	3	56	8	24	i	n	2739.09	0	100	1000	1	0
102	3	34	N	N	d	553.09	0	7	56	4	24	c	j	820.53	1	1000	1000	1	1
102	3	35	P	P	f	569.24	1	2	56	7	24	i	j	503.01	1	1000	100	1	0
102	3	36	N	N	d	553.04	0	7	56	4	24	c	j	2955.47	1	100	1000	1	0
102	3	37	P	P	f	803.19	1	7	56	3	24	c	j	769.88	1	1000	1000	1	0
102	3	38	N	N	d	2254.93	0	8	56	4	24	c	j	803.33	1	100	100	1	0
102	3	39	P	P	f	2137.6	1	3	24	9	56	c	n	602.67	1	100	100	1	0
102	3	40	P	P	f	919.78	1	9	56	2	24	c	j	603.09	1	100	1000	0	0
102	3	41	P	P	f	436.12	1	4	56	8	24	i	j	654.01	1	1000	1000	0	0
102	3	42	P	P	f	586.38	1	2	24	8	56	c	n	534.89	1	100	1000	0	0
102	3	43	P	P	f	484.24	1	8	24	3	56	i	n	453.35	1	100	1000	0	0
102	3	44	N	N	d	602.91	0	8	24	2	56	i	j	603.39	1	100	100	1	0
102	3	45	P	P	f	686.57	1	8	24	3	56	i	n	853.52	1	1000	1000	1	0
102	3	46	P	P	f	519.44	1	4	24	7	56	c	n	602.2	1	1000	100	0	0
102	3	47	N	N	d	736.16	0	7	24	3	56	i	j	2304.58	1	1000	1000	1	0
102	3	48	P	P	f	669.62	1	8	24	4	56	i	n	885.22	1	100	1000	1	0
102	3	49	P	P	f	569.73	1	2	56	8	24	i	j	569.18	1	100	1000	0	0
102	3	50	N	N	d	586.36	0	7	24	3	56	i	j	503.16	1	1000	100	1	0
102	3	51	N	N	d	586.24	0	9	56	4	24	c	j	552.71	1	100	100	0	0
102	3	52	N	N	d	536.44	0	2	24	8	56	c	n	503.89	1	100	100	0	0
102	3	53	P	P	f	751.47	1	3	24	7	56	c	n	1070.87	1	1000	1000	1	0
102	3	54	N	N	d	452.93	0	2	24	8	56	c	n	486.24	1	1000	100	1	0
102	3	55	P	P	f	653.46	1	4	24	8	56	c	n	702.92	1	100	1000	1	0
102	3	56	N	N	d	619.68	0	2	56	7	24	i	n	1303.71	1	1000	100	1	0
102	3	57	P	P	f	335.97	1	8	24	3	56	i	n	1670.22	1	1000	100	1	0
102	3	58	P	P	f	602.79	1	8	56	2	24	c	j	536.31	1	1000	1000	0	0
102	3	59	P	P	f	653.17	1	3	24	8	56	c	n	469.35	1	100	100	0	0
102	3	60	N	N	d	636.57	0	2	24	7	56	c	n	870.23	1	100	100	1	0
102	3	61	N	N	d	285.8	0	3	56	7	24	i	n	870.1	1	1000	1000	0	0
102	3	62	N	N	d	736.36	0	9	24	2	56	i	j	687.01	1	100	100	0	0
102	3	63	N	N	d	552.94	0	4	24	7	56	c	n	1621.19	1	100	1000	0	0
102	3	64	N	N	d	336.03	0	3	24	8	56	c	n	452.78	1	1000	1000	0	0
102	3	65	N	N	d	486.01	0	2	56	7	24	i	n	703.97	1	100	1000	0	0
102	4	1	P	P	f	1153.54	1	7	24	3	56	i	j	952.89	0	100	1000	-1	0
102	4	2	P	P	f	653.04	1	7	24	4	56	i	n	803.34	1	100	100	0	1
102	4	3	N	N	d	352.49	0	3	56	8	24	i	n	1370.58	1	1000	1000	1	0
102	4	4	N	N	d	787.1	0	7	24	4	56	i	j	719.7	1	100	100	0	0
102	4	5	N	N	d	502.83	0	3	24	9	56	c	n	819.03	1	100	1000	0	0
102	4	6	P	P	f	602.97	1	8	56	2	24	c	j	1069.4	1	100	1000	1	0
102	4	7	P	P	f	418.9	1	7	24	4	56	i	n	2805.76	1	100	1000	0	0
102	4	8	N	N	d	302.32	0	2	24	8	56	c	n	1003.05	1	1000	100	1	0
102	4	9	P	P	f	603.01	1	3	56	7	24	i	j	870.42	1	1000	100	1	0
102	4	10	P	P	f	486.02	1	9	24	2	56	i	n	986.82	1	1000	1000	0	0
102	4	11	N	N	d	569.4	0	8	24	3	56	i	j	969.82	1	1000	100	1	0
102	4	12	P	P	f	502.37	1	2	56	9	24	i	j	886.49	1	100	100	1	0
102	4	13	N	N	d	719.17	0	7	24	4	56	i	j	1137.14	1	100	1000	1	0
102	4	14	P	P	f	235.47	1	9	24	2	56	i	n	869.89	1	1000	1000	1	0
102	4	15	N	N	d	419.39	0	7	56	3	24	c	j	2288.54	1	100	1000	1	0
102	4	16	N	N	d	569.28	0	4	56	9	24	i	n	603.26	1	1000	1000	0	0
102	4	17	N	N	d	519.54	0	3	56	9	24	i	n	670.45	1	100	100	0	0
102	4	18	N	N	d	585.97	0	4	24	9	56	c	n	1587.21	1	1000	100	0	0
102	4	19	N	N	d	1020.06	0	8	56	3	24	c	j	670.4	1	100	1000	0	0
102	4	20	N	N	d	486.22	0	9	56	2	24	c	j	1269.8	1	100	100	0	0
102	4	21	P	P	f	1153.62	1	3	24	9	56	c	n	469.45	1	1000	1000	1	0
102	4	22	N	N	d	934.89	0	8	56	2	24	c	j	1004.06	1	100	100	1	0
102	4	23	P	P	d	753.34	1	3	24	7	56	c	n	2956.01	1	100	100	1	0
102	4	24	N	N	d	1286.89	0	2	24	9	56	c	n	652.82	1	100	100	1	0
102	4	25	N	N	d	2521.84	0	8	56	4	24	c	j	2388.72	1	1000	100	0	0
102	4	26	P	P	f	986.88	1	8	56	3	24	c	j	2355.98	1	1000	100	1	0
102	4	27	P	P	f	1136.26	1	2	56	9	24	i	j	570.39	1	100	1000	0	0
102	4	28	P	P	f	652.79	1	3	24	7	56	c	n	2369.43	1	1000	1000	0	0
102	4	29	P	P	f	352.21	1	7	24	2	56	i	n	686.69	1	1000	100	0	0
102	4	30	N	N	d	586.38	0	3	56	9	24	i	n	2088.18	1	100	1000	1	0
102	4	31	P	P	f	920.14	1	2	56	7	24	i	j	919.11	1	1000	1000	1	0
102	4	32	P	P	f	669.69	1	9	56	4	24	c	j	620.2	1	1000	100	0	0
102	4	33	P	P	f	436.31	1	3	24	9	56	c	n	603.9	1	100	100	0	0
102	4	34	N	N	d	403.13	0	7	56	2	24	c	j	718.31	1	1000	1000	1	0
102	4	35	N	N	d	302.85	0	8	24	4	56	i	n	487.52	0	1000	100	0	0
102	4	36	N	N	d	336.14	0	9	56	2	24	c	j	452.84	1	1000	1000	0	1
102	4	37	N	N	d	469.33	0	4	24	8	56	c	n	920.49	1	1000	1000	0	0
102	4	38	P	P	f	586.69	1	9	24	2	56	i	n	653.18	1	100	100	1	0
102	4	39	P	P	f	984.46	1	3	24	7	56	c	n	620.3	1	1000	100	0	0
102	4	40	N	N	d	569.76	0	7	56	4	24	c	j	736.3	1	1000	100	1	0
102	4	41	N	N	d	502.56	0	3	24	9	56	c	n	803.18	1	100	100	0	0
102	4	42	N	N	d	603.14	0	4	56	9	24	i	n	753.11	1	100	1000	0	0
102	4	43	N	N	d	536.27	0	7	24	3	56	i	j	852.67	1	100	1000	0	0
102	4	44	P	P	f	686.45	1	9	56	2	24	c	j	553.43	1	100	100	1	0
102	4	45	N	N	d	836.31	0	3	24	9	56	c	n	603.55	1	1000	1000	1	0
102	4	46	P	P	f	385.16	1	8	24	4	56	i	n	936.56	1	1000	100	1	0
102	4	47	P	P	f	686.31	1	8	56	2	24	c	j	619.67	1	100	100	0	0
102	4	48	N	N	d	736.59	0	7	24	4	56	i	j	686.21	1	1000	1000	1	0
102	4	49	P	P	f	603.17	1	2	24	7	56	c	n	769.84	1	100	1000	1	0
102	4	50	N	N	d	503.22	0	4	24	7	56	c	n	1036.87	1	100	1000	1	0
102	4	51	P	P	f	1301.81	1	8	24	3	56	i	n	986.62	1	100	1000	1	0
102	4	52	P	P	f	837.24	1	4	56	9	24	i	j	653.46	1	100	100	0	0
102	4	53	N	N	d	735.96	0	3	56	8	24	i	n	1454.5	1	100	100	1	0
102	4	54	N	N	d	453.66	0	4	56	9	24	i	n	836.34	1	1000	100	0	0
102	4	55	P	P	f	486.59	1	9	56	3	24	c	j	1301.94	1	1000	1000	1	0
102	4	56	P	P	f	569.38	1	4	56	7	24	i	j	419.11	1	1000	1000	0	0
102	4	57	P	P	f	552.62	1	3	56	9	24	i	j	970.54	1	1000	100	0	0
102	4	58	P	P	f	535.58	1	7	56	4	24	c	j	601.39	1	100	1000	0	0
102	4	59	P	P	f	751.01	1	7	56	2	24	c	j	402.59	1	1000	1000	0	0
102	4	60	P	P	f	619.65	1	3	24	7	56	c	n	501.34	1	100	1000	0	0
102	4	61	N	N	d	970.18	0	4	56	8	24	i	n	1203.59	1	1000	100	1	0
102	4	62	N	N	d	302.41	0	7	24	3	56	i	j	1938.64	1	1000	1000	0	0
102	4	63	P	P	f	902.92	1	2	56	7	24	i	j	1569.83	1	100	1000	1	0
102	4	64	N	N	d	770.22	0	8	24	3	56	i	j	869.31	1	100	100	1	0
102	4	65	P	P	f	436.7	1	2	24	7	56	c	n	703.59	1	1000	100	1	0
102	5	1	N	N	d	1153.54	0	3	24	9	56	c	n	619.32	1	100	1000	-1	0
102	5	2	P	P	f	1718.85	1	4	24	8	56	c	n	386.69	1	100	1000	1	0
102	5	3	N	N	d	602.85	0	7	24	3	56	i	j	1937.64	1	1000	1000	1	0
102	5	4	N	N	d	519.03	0	7	24	4	56	i	j	686.68	1	100	100	0	0
102	5	5	N	N	d	486.74	0	3	24	8	56	c	n	436.42	1	100	1000	0	0
102	5	6	N	N	d	569.76	0	4	24	9	56	c	n	602.82	1	1000	1000	0	0
102	5	7	P	P	f	769.86	1	7	24	3	56	i	n	803.39	1	100	100	1	0
102	5	8	N	N	f	536.4	0	9	56	4	24	c	j	1754.2	1	100	1000	1	0
102	5	9	P	P	f	736.61	1	8	24	3	56	i	n	1170.06	1	1000	1000	1	0
102	5	10	N	N	d	553.17	0	2	24	7	56	c	n	803.89	1	1000	100	1	0
102	5	11	N	N	d	602.93	0	9	24	3	56	i	j	987.13	1	1000	1000	0	0
102	5	12	N	N	d	519.05	0	7	56	2	24	c	j	569.83	1	100	100	0	0
102	5	13	P	P	d	653.1	1	9	56	4	24	c	j	1471.0	1	100	1000	1	0
102	5	14	N	N	d	953.65	0	2	24	9	56	c	n	2371.01	1	1000	1000	1	0
102	5	15	P	P	f	2622.09	1	8	24	3	56	i	n	1504.05	1	100	1000	1	0
102	5	16	N	N	d	519.51	0	2	24	9	56	c	n	1671.41	1	100	100	1	0
102	5	17	N	N	d	602.61	0	7	56	4	24	c	j	869.75	1	1000	1000	0	0
102	5	18	P	P	f	1003.63	1	8	24	3	56	i	n	1570.35	1	1000	100	1	0
102	5	19	N	N	d	553.16	0	7	24	4	56	i	j	2119.73	1	100	1000	1	0
102	5	20	P	P	f	485.34	1	3	56	9	24	i	j	1454.01	1	1000	100	1	0
102	5	21	N	N	d	986.89	0	9	56	4	24	c	j	853.57	1	1000	100	1	0
102	5	22	N	N	f	1620.85	0	3	56	8	24	i	j	1120.91	0	100	1000	0	0
102	5	23	P	P	f	9212.44	1	8	56	2	24	c	j	785.77	1	100	100	1	1
102	5	24	P	P	f	536.13	1	7	24	4	56	i	n	2705.47	1	100	1000	0	0
102	5	25	N	N	d	569.15	0	3	56	7	24	i	n	636.61	1	100	1000	1	0
102	5	26	P	P	f	619.64	1	2	56	9	24	i	j	917.65	1	100	1000	1	0
102	5	27	P	P	f	736.22	1	3	56	9	24	i	j	870.0	1	100	1000	0	0
102	5	28	P	P	f	636.65	1	7	56	2	24	c	j	970.17	1	1000	1000	0	0
102	5	29	P	P	f	369.39	1	4	24	9	56	c	n	602.59	1	1000	100	0	0
102	5	30	P	P	f	485.75	1	2	56	7	24	i	j	553.37	1	100	100	0	0
102	5	31	P	P	f	617.68	1	7	24	4	56	i	n	569.05	1	100	100	0	0
102	5	32	P	P	f	569.64	1	3	24	9	56	c	n	486.6	1	1000	1000	0	0
102	5	33	P	P	f	786.63	1	7	56	2	24	c	j	619.01	1	100	100	0	0
102	5	34	N	N	d	870.26	0	3	56	7	24	i	n	1052.66	1	100	100	1	0
102	5	35	N	N	d	469.71	0	2	56	8	24	i	n	1836.95	1	100	100	0	0
102	5	36	N	N	d	419.8	0	9	56	3	24	c	j	669.87	1	1000	100	0	0
102	5	37	P	P	f	603.04	1	4	56	7	24	i	j	770.64	1	1000	1000	1	0
102	5	38	P	P	f	584.42	1	2	24	8	56	c	n	670.24	1	100	1000	0	0
102	5	39	N	N	d	553.28	0	7	24	4	56	i	j	770.52	1	1000	100	1	0
102	5	40	N	N	d	486.11	0	2	24	8	56	c	n	903.29	1	100	100	0	0
102	5	41	P	P	f	669.33	1	3	24	7	56	c	n	787.18	1	100	100	1	0
102	5	42	N	N	f	469.65	0	8	24	4	56	i	j	2554.92	1	100	100	1	0
102	5	43	P	P	f	1654.41	1	8	56	3	24	c	j	2888.63	1	1000	1000	1	0
102	5	44	N	N	d	552.91	0	8	56	2	24	c	j	485.82	1	100	100	1	0
102	5	45	N	N	d	602.65	0	8	56	4	24	c	j	652.9	1	100	1000	0	0
102	5	46	N	N	d	602.98	0	7	24	3	56	i	j	3089.2	1	100	1000	0	0
102	5	47	P	P	f	969.72	1	2	56	9	24	i	j	820.31	1	100	100	1	0
102	5	48	N	N	d	684.46	0	4	56	9	24	i	n	1253.88	1	1000	1000	1	0
102	5	49	P	P	f	719.54	1	3	24	9	56	c	n	470.0	1	1000	100	1	0
102	5	50	P	P	f	617.87	1	4	56	8	24	i	j	1855.0	1	1000	1000	0	0
102	5	51	N	N	d	7694.47	0	2	56	8	24	i	n	1736.92	1	1000	100	1	0
102	5	52	N	N	d	752.31	0	3	56	9	24	i	n	1603.78	1	1000	1000	0	0
102	5	53	P	P	f	886.66	1	8	56	4	24	c	j	636.12	1	1000	100	1	0
102	5	54	P	P	f	503.12	1	9	56	3	24	c	j	603.52	1	100	1000	0	0
102	5	55	P	P	f	519.41	1	9	56	4	24	c	j	770.37	1	1000	100	0	0
102	5	56	P	P	f	519.7	1	2	24	8	56	c	n	5208.91	1	100	100	0	0
102	5	57	P	P	f	836.56	1	9	24	3	56	i	n	1019.86	1	1000	100	0	0
102	5	58	P	P	f	536.24	1	4	56	8	24	i	j	1304.11	1	1000	100	0	0
102	5	59	N	N	d	669.58	0	2	24	9	56	c	n	819.63	1	100	1000	1	0
102	5	60	N	N	d	637.6	0	3	56	9	24	i	n	752.24	1	1000	100	0	0
102	5	61	P	P	f	569.65	1	4	24	8	56	c	n	1404.35	1	1000	1000	1	0
102	5	62	P	P	f	869.83	1	7	24	2	56	i	n	385.35	1	1000	1000	0	0
102	5	63	N	N	d	1637.46	0	9	56	3	24	c	j	3505.77	1	1000	1000	1	0
102	5	64	N	N	d	1253.73	0	2	24	8	56	c	n	1604.87	1	1000	100	0	0
102	5	65	N	N	d	452.8	0	9	24	3	56	i	j	702.87	1	1000	100	0	0
102	6	1	N	N	d	1387.33	0	9	24	4	56	i	j	3655.94	1	100	100	-1	0
102	6	2	N	N	d	452.56	0	2	56	7	24	i	n	1136.58	1	100	1000	0	0
102	6	3	P	P	f	536.71	1	9	24	3	56	i	n	536.41	1	100	1000	1	0
102	6	4	P	P	f	486.03	1	2	24	7	56	c	n	603.39	1	100	1000	0	0
102	6	5	P	P	f	519.57	1	9	24	4	56	i	n	885.85	1	1000	1000	0	0
102	6	6	N	N	d	452.51	0	8	56	3	24	c	j	820.4	1	1000	100	1	0
102	6	7	P	P	f	1036.8	1	7	56	2	24	c	j	486.92	1	1000	100	1	0
102	6	8	N	N	d	368.82	0	9	56	4	24	c	j	636.76	1	1000	1000	1	0
102	6	9	N	N	d	519.0	0	9	24	2	56	i	j	937.23	1	1000	100	0	0
102	6	10	P	P	f	1003.1	1	7	56	3	24	c	j	618.84	1	100	100	1	0
102	6	11	P	P	f	986.77	1	2	56	9	24	i	j	636.25	1	1000	1000	0	0
102	6	12	P	P	f	402.76	1	4	24	7	56	c	n	753.8	1	1000	100	0	0
102	6	13	N	N	d	719.47	0	9	24	2	56	i	j	1353.28	1	1000	100	1	0
102	6	14	N	N	d	602.98	0	7	24	4	56	i	j	770.64	1	100	1000	0	0
102	6	15	P	P	f	569.46	1	7	56	3	24	c	j	1287.42	1	100	1000	1	0
102	6	16	P	P	f	1553.7	1	4	24	7	56	c	n	602.47	1	1000	1000	0	0
102	6	17	N	N	d	869.75	0	3	24	7	56	c	n	1086.9	1	100	100	1	0
102	6	18	N	N	d	452.99	0	2	56	7	24	i	n	653.02	1	100	100	0	0
102	6	19	P	P	f	702.64	1	7	24	4	56	i	j	1353.68	0	100	100	1	0
102	6	20	P	P	f	2888.07	1	9	56	3	24	c	j	637.11	1	100	100	0	1
102	6	21	P	P	f	519.52	1	2	56	8	24	i	j	820.28	1	100	100	0	0
102	6	22	P	P	f	636.42	1	7	24	3	56	i	n	469.7	1	100	1000	0	0
102	6	23	N	N	d	619.86	0	7	24	2	56	i	j	920.06	1	100	100	1	0
102	6	24	P	P	d	436.31	1	4	56	8	24	i	j	2221.76	1	100	1000	1	0
102	6	25	N	N	d	719.08	0	3	56	8	24	i	n	1955.06	1	1000	100	1	0
102	6	26	N	N	d	534.68	0	9	56	4	24	c	j	1187.31	1	100	1000	0	0
102	6	27	N	N	d	518.84	0	9	56	3	24	c	j	519.73	1	100	100	0	0
102	6	28	N	N	d	469.58	0	2	24	8	56	c	n	853.18	1	1000	100	0	0
102	6	29	P	P	f	569.79	1	9	24	4	56	i	j	837.38	0	1000	100	1	0
102	6	30	N	N	d	1120.37	0	3	24	9	56	c	n	1504.53	1	1000	1000	1	1
102	6	31	P	P	f	518.39	1	2	56	9	24	i	n	1003.61	0	100	100	1	0
102	6	32	P	P	f	1036.63	1	9	56	3	24	c	j	669.61	1	100	1000	0	1
102	6	33	N	N	d	851.69	0	2	56	9	24	i	n	1485.86	1	1000	1000	1	0
102	6	34	N	N	d	452.91	0	3	24	9	56	c	n	620.22	1	1000	1000	0	0
102	6	35	P	P	f	684.47	1	2	24	9	56	c	n	619.92	1	100	1000	1	0
102	6	36	P	P	f	486.97	1	8	24	4	56	i	n	836.62	1	100	100	0	0
102	6	37	N	N	d	719.63	0	7	24	2	56	i	j	1687.32	1	1000	1000	1	0
102	6	38	N	N	d	802.97	0	8	56	3	24	c	j	1220.57	1	1000	1000	0	0
102	6	39	P	P	f	669.28	1	4	24	9	56	c	n	452.84	1	100	100	1	0
102	6	40	N	N	d	519.71	0	9	56	2	24	c	j	853.18	1	100	100	1	0
102	6	41	N	N	d	419.58	0	8	24	3	56	i	j	620.16	1	1000	1000	0	0
102	6	42	P	P	f	653.37	1	4	24	7	56	c	n	453.63	1	1000	1000	1	0
102	6	43	P	P	f	802.89	1	3	24	8	56	c	n	503.31	1	100	100	0	0
102	6	44	N	N	d	569.92	0	8	24	4	56	i	j	536.19	1	100	1000	1	0
102	6	45	P	P	f	619.82	1	2	56	7	24	i	j	2455.69	1	1000	100	1	0
102	6	46	P	P	f	603.8	1	8	24	4	56	i	n	786.16	1	1000	100	0	0
102	6	47	N	N	d	536.28	0	7	56	3	24	c	j	886.37	1	100	1000	1	0
102	6	48	P	P	f	751.18	1	2	56	8	24	i	j	1170.61	1	1000	1000	1	0
102	6	49	P	P	f	569.68	1	7	56	3	24	c	j	553.52	1	1000	100	0	0
102	6	50	P	P	f	569.42	1	2	56	9	24	i	j	736.34	1	1000	100	0	0
102	6	51	N	N	d	469.17	0	4	56	7	24	i	n	2254.71	1	100	1000	1	0
102	6	52	P	P	f	502.42	1	2	24	7	56	c	n	920.45	1	1000	100	1	0
102	6	53	N	N	d	569.94	0	3	24	9	56	c	n	752.57	1	100	1000	1	0
102	6	54	N	N	d	769.69	0	7	24	4	56	i	j	1687.66	1	100	100	0	0
102	6	55	N	N	d	635.85	0	3	24	9	56	c	n	736.18	1	100	100	0	0
102	6	56	N	N	d	586.15	0	4	56	8	24	i	n	970.52	1	1000	100	0	0
102	6	57	N	N	d	619.78	0	3	56	8	24	i	n	1470.86	1	1000	1000	0	0
102	6	58	N	N	d	502.44	0	2	24	8	56	c	n	634.43	1	100	1000	0	0
102	6	59	P	P	f	369.28	1	7	56	3	24	c	j	536.37	1	1000	1000	1	0
102	6	60	P	P	f	469.58	1	8	56	2	24	c	j	519.39	1	1000	1000	0	0
102	6	61	P	P	f	1120.2	1	3	56	9	24	i	j	1019.99	1	100	1000	0	0
102	6	62	N	N	d	602.54	0	4	56	8	24	i	n	853.29	1	100	100	1	0
102	6	63	N	N	d	419.52	0	7	56	3	24	c	j	670.29	1	1000	100	0	0
102	6	64	P	P	f	353.25	1	8	24	2	56	i	n	803.91	1	1000	1000	1	0
102	6	65	N	N	d	319.68	0	4	24	8	56	c	n	769.69	1	1000	100	1	0
