subj	block	trial	task_cue	task	choice_resp	choiceRT	choice_acc	topnum	topsize	botnum	botsize	cong	task_resp	taskRT	task_acc	RSI	CSI	altRep	E1
105	1	1	?	P	d	1604.02	NA	3	56	9	24	i	j	736.5	1	100	1000	-1	0
105	1	2	?	P	d	986.83	NA	2	24	8	56	c	n	570.32	1	100	1000	0	0
105	1	3	?	N	f	2921.56	NA	7	56	4	24	c	j	569.17	1	100	1000	0	0
105	1	4	?	N	f	352.34	NA	8	56	3	24	c	j	736.59	1	1000	1000	0	0
105	1	5	?	P	d	469.42	NA	4	56	8	24	i	j	1137.2	1	1000	100	0	0
105	1	6	?	N	f	719.45	NA	3	56	9	24	i	n	667.82	1	1000	1000	0	0
105	1	7	?	N	f	351.37	NA	8	24	2	56	i	j	686.35	1	1000	1000	0	0
105	1	8	?	P	d	1470.85	NA	4	24	8	56	c	n	452.19	1	100	1000	0	0
105	1	9	?	P	d	285.72	NA	7	56	2	24	c	j	387.33	1	1000	1000	0	0
105	1	10	?	N	f	119.15	NA	4	24	7	56	c	n	736.27	1	1000	100	0	0
105	1	11	?	N	f	302.67	NA	2	56	7	24	i	n	536.02	1	1000	1000	0	0
105	1	12	?	P	d	1253.39	NA	4	24	7	56	c	n	987.11	1	100	100	0	0
105	1	13	?	P	d	484.32	NA	7	56	2	24	c	j	686.8	1	1000	100	0	0
105	1	14	?	N	f	1453.57	NA	8	56	4	24	c	j	820.53	1	100	100	0	0
105	1	15	?	P	d	1603.65	NA	2	56	8	24	i	j	1137.22	1	100	100	0	0
105	1	16	?	P	d	267.44	NA	7	24	4	56	i	n	853.66	1	1000	1000	0	0
105	1	17	?	N	f	1086.67	NA	9	56	3	24	c	j	704.01	1	100	1000	0	0
105	1	18	?	N	f	368.87	NA	9	56	2	24	c	j	386.96	1	1000	1000	0	0
105	1	19	?	P	d	2455.93	NA	4	56	8	24	i	j	970.31	1	100	100	0	0
105	1	20	?	P	d	202.48	NA	9	24	3	56	i	n	586.7	1	1000	1000	0	0
105	1	21	?	P	d	1537.68	NA	8	24	2	56	i	n	703.04	1	100	1000	0	0
105	1	22	?	N	f	1203.61	NA	7	24	3	56	i	j	1237.83	1	100	1000	0	0
105	1	23	?	N	f	1153.22	NA	8	24	4	56	i	j	1037.04	1	100	100	0	0
105	1	24	?	N	f	69.12	NA	2	24	8	56	c	n	720.12	1	1000	1000	0	0
105	1	25	?	P	d	252.84	NA	9	56	3	24	c	j	802.55	1	1000	100	0	0
105	1	26	?	N	f	52.49	NA	7	24	4	56	i	j	1987.86	1	1000	1000	0	0
105	1	27	?	P	d	452.62	NA	7	24	2	56	i	n	1387.38	1	1000	100	0	0
105	1	28	?	P	d	486.16	NA	4	24	9	56	c	n	1120.16	1	1000	1000	0	0
105	1	29	?	N	f	1553.56	NA	3	24	9	56	c	n	920.68	1	100	100	0	0
105	1	30	?	N	f	2371.69	NA	4	56	9	24	i	n	918.97	1	100	100	0	0
105	1	31	?	P	d	1987.95	NA	8	24	2	56	i	n	719.8	1	100	1000	0	0
105	1	32	?	P	d	1538.36	NA	3	56	7	24	i	j	1638.1	1	100	1000	0	0
105	1	33	?	P	d	386.1	NA	2	24	8	56	c	n	1971.25	1	1000	100	0	0
105	1	34	?	N	f	653.01	NA	3	24	8	56	c	n	803.28	1	100	100	0	0
105	1	35	?	N	f	1487.45	NA	7	56	2	24	c	j	703.46	1	100	100	0	0
105	1	36	?	N	f	1737.34	NA	7	56	3	24	c	j	636.4	1	100	100	0	0
105	1	37	?	P	d	469.59	NA	4	24	8	56	c	n	436.04	1	100	1000	0	0
105	1	38	?	P	d	553.08	NA	3	24	8	56	c	n	469.19	1	1000	1000	0	0
105	1	39	?	N	f	2.48	NA	7	24	2	56	i	j	920.23	1	1000	100	0	0
105	1	40	?	P	d	183.8	NA	3	56	8	24	i	n	834.81	0	1000	100	0	0
105	1	41	?	N	f	786.32	NA	4	56	9	24	i	n	1537.43	1	1000	100	0	1
105	1	42	?	P	d	419.25	NA	3	24	8	56	c	n	585.84	1	1000	100	0	0
105	1	43	?	P	d	1137.08	NA	9	24	2	56	i	n	937.15	1	100	1000	0	0
105	1	44	?	N	f	319.25	NA	8	56	3	24	c	j	753.1	1	1000	100	0	0
105	1	45	?	P	d	302.76	NA	9	24	2	56	i	n	619.98	1	1000	100	0	0
105	1	46	?	N	f	503.29	NA	4	24	9	56	c	n	1001.47	1	100	1000	0	0
105	1	47	?	P	d	2288.29	NA	2	24	7	56	c	n	685.8	1	1000	100	0	0
105	1	48	?	P	d	252.59	NA	7	56	4	24	c	j	636.35	1	1000	100	0	0
105	1	49	?	N	f	1036.77	NA	9	24	2	56	i	j	720.44	1	100	1000	0	0
105	1	50	?	N	f	736.03	NA	8	56	4	24	c	j	652.86	1	100	1000	0	0
105	1	51	?	N	f	402.27	NA	3	56	7	24	i	n	870.1	1	100	100	0	0
105	1	52	?	P	d	419.87	NA	4	24	8	56	c	n	603.58	1	100	100	0	0
105	1	53	?	N	f	319.56	NA	9	24	3	56	i	j	653.16	1	1000	1000	0	0
105	1	54	?	P	d	486.21	NA	4	24	7	56	c	n	436.97	1	1000	1000	0	0
105	1	55	?	N	f	519.48	NA	7	56	3	24	c	j	669.21	1	100	100	0	0
105	1	56	?	P	d	586.27	NA	7	24	2	56	i	j	969.9	0	100	1000	0	0
105	1	57	?	N	f	1584.94	NA	9	56	3	24	c	j	1070.8	1	1000	1000	0	1
105	1	58	?	P	d	502.83	NA	4	56	8	24	i	j	603.67	1	100	100	0	0
105	1	59	?	N	f	502.74	NA	2	56	7	24	i	n	1435.23	1	100	100	0	0
105	1	60	?	P	d	518.88	NA	3	56	7	24	i	j	1954.85	1	1000	100	0	0
105	1	61	?	N	f	553.06	NA	8	24	4	56	i	j	653.2	1	100	1000	0	0
105	1	62	?	N	f	502.81	NA	9	56	2	24	c	j	687.33	1	100	1000	0	0
105	1	63	?	P	d	302.52	NA	7	24	3	56	i	n	836.23	1	1000	100	0	0
105	1	64	?	N	f	1654.08	NA	2	56	8	24	i	n	2055.27	1	100	100	0	0
105	1	65	?	P	d	2421.44	NA	3	56	8	24	i	j	636.49	1	1000	1000	0	0
105	2	1	?	N	f	1737.24	NA	3	56	9	24	i	n	1571.39	1	1000	1000	-1	0
105	2	2	?	P	d	336.11	NA	4	56	8	24	i	j	469.75	1	1000	1000	0	0
105	2	3	?	N	f	769.54	NA	9	56	3	24	c	j	652.93	1	100	1000	0	0
105	2	4	?	P	d	903.05	NA	9	24	2	56	i	n	1954.65	1	1000	100	0	0
105	2	5	?	P	d	269.23	NA	7	24	3	56	i	n	1070.31	1	1000	1000	0	0
105	2	6	?	N	f	469.4	NA	2	24	7	56	c	n	2371.38	1	1000	1000	0	0
105	2	7	?	N	f	2971.57	NA	4	56	7	24	i	n	1236.96	1	100	100	0	0
105	2	8	?	N	f	569.57	NA	2	56	8	24	i	n	835.17	1	100	100	0	0
105	2	9	?	N	f	1003.41	NA	4	24	7	56	c	n	768.08	1	100	1000	0	0
105	2	10	?	P	d	334.18	NA	8	56	2	24	c	j	719.56	1	1000	100	0	0
105	2	11	?	P	d	1187.08	NA	3	24	9	56	c	n	619.28	1	100	1000	0	0
105	2	12	?	P	d	536.22	NA	2	24	9	56	c	n	619.55	1	100	100	0	0
105	2	13	?	P	d	436.11	NA	9	56	4	24	c	j	770.04	1	100	1000	0	0
105	2	14	?	N	f	602.9	NA	9	56	3	24	c	j	1003.5	1	100	100	0	0
105	2	15	?	N	f	302.55	NA	2	56	7	24	i	n	852.83	1	1000	100	0	0
105	2	16	?	N	f	602.4	NA	3	56	9	24	i	n	703.53	1	100	1000	0	0
105	2	17	?	P	d	753.28	NA	2	24	7	56	c	n	1453.95	1	100	1000	0	0
105	2	18	?	P	d	536.13	NA	7	56	3	24	c	j	670.13	1	100	100	0	0
105	2	19	?	N	f	402.79	NA	7	56	2	24	c	j	670.16	1	1000	1000	0	0
105	2	20	?	P	d	653.0	NA	4	56	8	24	i	j	1170.93	1	100	100	0	0
105	2	21	?	N	f	519.85	NA	3	24	8	56	c	n	937.39	1	100	100	0	0
105	2	22	?	P	d	436.13	NA	7	24	4	56	i	j	870.16	0	1000	100	0	0
105	2	23	?	N	f	3722.9	NA	2	24	8	56	c	n	1386.82	1	1000	100	0	1
105	2	24	?	P	d	185.74	NA	3	24	7	56	c	n	637.01	1	1000	1000	0	0
105	2	25	?	N	f	402.52	NA	7	56	4	24	c	j	669.7	1	1000	100	0	0
105	2	26	?	N	f	1002.68	NA	8	24	3	56	i	j	886.8	1	100	1000	0	0
105	2	27	?	P	d	752.88	NA	9	56	2	24	c	j	1087.06	1	100	1000	0	0
105	2	28	?	P	d	869.77	NA	3	56	9	24	i	j	1320.56	1	100	1000	0	0
105	2	29	?	N	f	500.83	NA	2	56	7	24	i	n	1521.21	1	1000	100	0	0
105	2	30	?	N	f	1137.09	NA	8	24	3	56	i	j	2071.38	1	1000	1000	0	0
105	2	31	?	P	d	419.51	NA	4	24	8	56	c	n	585.31	1	1000	100	0	0
105	2	32	?	P	d	452.81	NA	2	56	7	24	i	j	1337.5	1	1000	100	0	0
105	2	33	?	N	f	836.4	NA	9	56	4	24	c	j	2636.71	1	1000	1000	0	0
105	2	34	?	N	f	486.17	NA	9	24	3	56	i	n	1053.11	0	1000	100	0	0
105	2	35	?	P	d	485.83	NA	2	56	9	24	i	j	1137.01	1	1000	100	0	1
105	2	36	?	P	d	1787.13	NA	7	24	3	56	i	n	1236.62	1	100	100	0	0
105	2	37	?	N	f	819.92	NA	8	56	2	24	c	j	569.43	1	100	1000	0	0
105	2	38	?	P	d	1370.25	NA	8	24	4	56	i	n	1285.11	1	100	1000	0	0
105	2	39	?	P	d	819.87	NA	3	24	9	56	c	n	669.56	1	100	100	0	0
105	2	40	?	P	d	436.21	NA	4	24	9	56	c	n	586.32	1	1000	1000	0	0
105	2	41	?	P	d	1670.88	NA	8	24	3	56	i	n	603.04	1	100	1000	0	0
105	2	42	?	N	f	386.02	NA	4	56	8	24	i	j	603.08	0	1000	1000	0	0
105	2	43	?	N	f	685.72	NA	9	56	3	24	c	j	2905.85	1	1000	1000	0	1
105	2	44	?	N	f	1053.16	NA	9	56	2	24	c	j	703.38	1	100	100	0	0
105	2	45	?	N	f	936.47	NA	9	24	4	56	i	j	737.08	1	100	1000	0	0
105	2	46	?	P	d	1170.31	NA	3	56	9	24	i	j	936.97	1	100	100	0	0
105	2	47	?	P	d	820.12	NA	8	24	4	56	i	n	1569.91	1	100	1000	0	0
105	2	48	?	P	d	903.31	NA	2	24	9	56	c	n	669.63	1	100	1000	0	0
105	2	49	?	P	d	536.04	NA	8	24	4	56	i	n	1403.73	1	100	100	0	0
105	2	50	?	N	f	318.79	NA	7	56	3	24	c	j	1287.22	1	1000	100	0	0
105	2	51	?	P	d	185.82	NA	8	24	2	56	i	n	1137.24	1	1000	1000	0	0
105	2	52	?	N	f	252.75	NA	3	24	7	56	c	n	835.61	1	1000	100	0	0
105	2	53	?	P	d	1170.28	NA	2	24	7	56	c	n	903.94	1	1000	1000	0	0
105	2	54	?	N	f	1036.92	NA	8	24	4	56	i	j	636.27	1	100	1000	0	0
105	2	55	?	P	d	1287.09	NA	3	24	9	56	c	n	786.12	1	100	100	0	0
105	2	56	?	N	f	252.83	NA	4	56	9	24	i	n	720.0	1	1000	1000	0	0
105	2	57	?	P	d	987.35	NA	2	56	8	24	i	j	1036.6	1	100	100	0	0
105	2	58	?	P	d	269.55	NA	3	24	7	56	c	n	953.37	1	1000	100	0	0
105	2	59	?	N	f	102.23	NA	8	24	2	56	i	j	735.8	1	1000	100	0	0
105	2	60	?	N	f	252.57	NA	7	56	3	24	c	j	1804.23	1	1000	1000	0	0
105	2	61	?	P	d	268.96	NA	4	56	7	24	i	j	803.14	1	1000	1000	0	0
105	2	62	?	N	f	1087.0	NA	8	24	3	56	i	j	687.33	1	100	100	0	0
105	2	63	?	P	d	302.72	NA	7	56	4	24	c	j	837.01	1	1000	100	0	0
105	2	64	?	N	f	803.35	NA	8	56	3	24	c	j	702.66	1	100	100	0	0
105	2	65	?	N	f	1287.32	NA	7	24	4	56	i	j	569.93	1	1000	1000	0	0
105	3	1	?	N	f	9596.38	NA	3	24	8	56	c	n	703.83	1	1000	1000	-1	0
105	3	2	?	P	d	852.92	NA	4	56	9	24	i	j	603.61	1	1000	1000	0	0
105	3	3	?	N	f	1036.51	NA	8	24	2	56	i	j	686.86	1	100	100	0	0
105	3	4	?	N	f	785.92	NA	4	24	7	56	c	n	702.51	1	100	1000	0	0
105	3	5	?	P	d	319.32	NA	3	56	9	24	i	j	853.76	1	1000	100	0	0
105	3	6	?	P	d	252.73	NA	8	56	2	24	c	j	786.57	1	1000	100	0	0
105	3	7	?	N	f	902.69	NA	4	56	8	24	i	n	420.25	1	100	1000	0	0
105	3	8	?	N	f	235.75	NA	9	24	3	56	i	j	669.91	1	1000	1000	0	0
105	3	9	?	P	d	268.51	NA	4	56	7	24	i	j	669.55	1	1000	100	0	0
105	3	10	?	P	d	617.76	NA	9	24	2	56	i	n	937.38	1	100	100	0	0
105	3	11	?	P	d	452.89	NA	9	56	3	24	c	j	553.43	1	1000	1000	0	0
105	3	12	?	N	f	719.84	NA	8	56	4	24	c	j	769.7	1	100	1000	0	0
105	3	13	?	N	f	551.11	NA	2	56	7	24	i	n	536.34	1	100	1000	0	0
105	3	14	?	N	f	268.63	NA	8	56	4	24	c	j	687.25	1	1000	100	0	0
105	3	15	?	N	f	452.93	NA	3	56	8	24	i	n	920.76	1	1000	100	0	0
105	3	16	?	P	d	1070.23	NA	2	56	9	24	i	j	520.21	1	100	1000	0	0
105	3	17	?	P	d	701.32	NA	3	24	8	56	c	n	803.47	1	100	100	0	0
105	3	18	?	N	f	753.1	NA	7	24	2	56	i	j	703.35	1	100	100	0	0
105	3	19	?	N	f	669.39	NA	4	56	9	24	i	n	1254.11	1	100	1000	0	0
105	3	20	?	P	d	636.53	NA	9	56	3	24	c	j	703.21	1	100	100	0	0
105	3	21	?	N	f	702.74	NA	4	56	9	24	i	n	985.21	1	100	1000	0	0
105	3	22	?	P	d	519.07	NA	7	24	2	56	i	n	787.11	1	1000	100	0	0
105	3	23	?	N	f	302.65	NA	3	24	8	56	c	n	519.9	1	1000	1000	0	0
105	3	24	?	N	f	152.35	NA	4	24	8	56	c	n	636.55	1	1000	100	0	0
105	3	25	?	P	d	652.79	NA	7	56	2	24	c	j	553.56	1	100	1000	0	0
105	3	26	?	P	d	617.68	NA	3	24	7	56	c	n	869.54	1	100	100	0	0
105	3	27	?	P	d	603.0	NA	2	56	8	24	i	j	936.68	1	100	1000	0	0
105	3	28	?	P	d	569.69	NA	4	24	8	56	c	n	653.84	1	100	100	0	0
105	3	29	?	N	f	619.08	NA	3	24	7	56	c	n	720.0	1	100	100	0	0
105	3	30	?	N	f	302.56	NA	4	56	8	24	i	j	769.88	0	1000	1000	0	0
105	3	31	?	N	f	2404.76	NA	3	56	8	24	i	n	1771.13	1	1000	1000	0	1
105	3	32	?	N	f	719.3	NA	9	56	4	24	c	j	819.9	1	1000	1000	0	0
105	3	33	?	P	d	469.35	NA	9	56	2	24	c	j	753.32	1	1000	1000	0	0
105	3	34	?	P	d	2054.82	NA	8	24	4	56	i	n	903.65	1	100	100	0	0
105	3	35	?	N	f	685.94	NA	2	56	9	24	i	n	887.2	1	100	100	0	0
105	3	36	?	N	f	85.95	NA	7	56	3	24	c	j	769.95	1	1000	100	0	0
105	3	37	?	P	d	703.25	NA	8	24	4	56	i	n	636.2	1	100	100	0	0
105	3	38	?	P	d	853.0	NA	2	24	9	56	c	n	536.12	1	100	1000	0	0
105	3	39	?	N	f	302.52	NA	4	24	8	56	c	n	686.75	1	1000	100	0	0
105	3	40	?	N	f	469.45	NA	3	24	8	56	c	n	536.29	1	1000	100	0	0
105	3	41	?	P	d	603.12	NA	4	24	7	56	c	n	803.18	1	1000	1000	0	0
105	3	42	?	P	d	1552.31	NA	8	56	3	24	c	j	569.41	1	100	100	0	0
105	3	43	?	N	f	452.63	NA	8	24	4	56	i	j	686.5	1	1000	1000	0	0
105	3	44	?	N	f	270.05	NA	2	24	7	56	c	n	2539.42	1	1000	1000	0	0
105	3	45	?	P	d	384.13	NA	8	24	4	56	i	n	736.5	1	1000	1000	0	0
105	3	46	?	P	d	636.56	NA	3	24	7	56	c	n	487.48	1	100	1000	0	0
105	3	47	?	N	f	252.31	NA	7	56	4	24	c	j	635.18	1	1000	100	0	0
105	3	48	?	P	d	719.6	NA	8	56	2	24	c	j	520.08	1	100	1000	0	0
105	3	49	?	N	f	35.03	NA	3	56	8	24	i	n	586.05	1	1000	1000	0	0
105	3	50	?	P	d	419.53	NA	7	24	2	56	i	n	685.63	1	1000	100	0	0
105	3	51	?	N	f	669.88	NA	9	24	3	56	i	j	602.81	1	100	100	0	0
105	3	52	?	P	d	285.87	NA	4	56	8	24	i	j	719.96	1	1000	100	0	0
105	3	53	?	N	f	269.37	NA	2	56	8	24	i	n	702.06	1	1000	100	0	0
105	3	54	?	N	f	269.25	NA	3	24	9	56	c	n	586.05	1	1000	1000	0	0
105	3	55	?	P	d	936.25	NA	2	56	7	24	i	j	936.91	1	100	100	0	0
105	3	56	?	P	d	386.0	NA	3	56	8	24	i	j	803.36	1	1000	1000	0	0
105	3	57	?	N	f	586.06	NA	8	24	4	56	i	n	1554.42	0	100	1000	0	0
105	3	58	?	N	f	586.0	NA	8	56	3	24	c	j	519.46	1	1000	1000	0	1
105	3	59	?	N	f	1737.37	NA	4	24	8	56	c	n	652.95	1	100	1000	0	0
105	3	60	?	P	d	653.05	NA	7	56	2	24	c	j	619.03	1	100	100	0	0
105	3	61	?	P	d	736.58	NA	9	56	3	24	c	j	770.2	1	100	100	0	0
105	3	62	?	N	f	302.78	NA	9	24	4	56	i	j	937.13	1	1000	100	0	0
105	3	63	?	N	f	502.78	NA	2	24	7	56	c	n	702.95	1	1000	100	0	0
105	3	64	?	P	d	1120.06	NA	8	56	3	24	c	j	452.07	1	100	1000	0	0
105	3	65	?	P	d	1070.23	NA	2	56	9	24	i	j	436.61	1	100	1000	0	0
105	4	1	?	N	f	2054.32	NA	9	24	3	56	i	j	603.48	1	1000	100	-1	0
105	4	2	?	P	d	835.82	NA	2	24	7	56	c	n	652.26	1	100	100	0	0
105	4	3	?	N	f	603.18	NA	9	56	3	24	c	j	1203.46	1	1000	100	0	0
105	4	4	?	P	d	602.91	NA	2	56	8	24	i	j	553.04	1	100	100	0	0
105	4	5	?	N	f	152.67	NA	3	24	9	56	c	n	569.97	1	1000	100	0	0
105	4	6	?	N	f	319.35	NA	8	24	2	56	i	j	486.18	1	1000	1000	0	0
105	4	7	?	N	f	1203.83	NA	9	56	3	24	c	j	503.47	1	100	1000	0	0
105	4	8	?	P	d	536.02	NA	2	24	9	56	c	n	552.93	1	100	100	0	0
105	4	9	?	P	d	252.54	NA	3	24	8	56	c	n	668.31	1	1000	1000	0	0
105	4	10	?	P	d	702.92	NA	2	56	8	24	i	j	786.27	1	100	100	0	0
105	4	11	?	P	d	285.97	NA	4	56	9	24	i	j	903.18	1	1000	100	0	0
105	4	12	?	N	f	970.45	NA	7	56	2	24	c	j	869.9	1	100	1000	0	0
105	4	13	?	N	f	317.42	NA	7	24	3	56	i	n	803.29	0	1000	1000	0	0
105	4	14	?	N	f	852.94	NA	4	24	9	56	c	n	668.31	1	100	1000	0	1
105	4	15	?	P	d	1020.22	NA	3	24	7	56	c	n	1236.94	1	100	1000	0	0
105	4	16	?	P	d	2671.46	NA	2	56	7	24	i	j	968.54	1	100	1000	0	0
105	4	17	?	P	d	819.91	NA	8	24	3	56	i	n	602.59	1	100	1000	0	0
105	4	18	?	N	f	268.71	NA	8	24	4	56	i	j	686.53	1	1000	100	0	0
105	4	19	?	N	f	269.24	NA	2	24	9	56	c	n	653.25	1	1000	100	0	0
105	4	20	?	N	f	719.81	NA	9	24	3	56	i	j	803.27	1	100	1000	0	0
105	4	21	?	P	d	286.05	NA	9	24	2	56	i	n	684.53	1	1000	100	0	0
105	4	22	?	P	d	269.31	NA	3	56	7	24	i	j	570.0	1	1000	1000	0	0
105	4	23	?	N	f	235.69	NA	7	56	2	24	c	j	568.68	1	1000	100	0	0
105	4	24	?	P	d	369.21	NA	4	56	8	24	i	j	502.09	1	1000	1000	0	0
105	4	25	?	N	f	552.76	NA	2	24	8	56	c	n	536.65	1	100	1000	0	0
105	4	26	?	N	f	736.39	NA	7	24	4	56	i	j	469.99	1	100	1000	0	0
105	4	27	?	P	d	1068.11	NA	7	24	2	56	i	n	786.76	1	1000	100	0	0
105	4	28	?	P	d	703.26	NA	8	24	3	56	i	n	720.12	1	100	100	0	0
105	4	29	?	P	d	202.62	NA	9	56	2	24	c	j	469.13	1	1000	1000	0	0
105	4	30	?	P	d	836.84	NA	9	24	4	56	i	n	586.4	1	100	1000	0	0
105	4	31	?	N	f	1137.04	NA	9	24	2	56	i	j	503.0	1	100	100	0	0
105	4	32	?	N	f	736.22	NA	3	56	8	24	i	n	484.36	1	100	1000	0	0
105	4	33	?	N	f	653.79	NA	9	56	2	24	c	j	1003.51	1	100	100	0	0
105	4	34	?	N	f	369.14	NA	3	24	7	56	c	n	569.51	1	1000	1000	0	0
105	4	35	?	N	f	2621.86	NA	7	56	2	24	c	j	1554.29	1	100	100	0	0
105	4	36	?	P	d	569.7	NA	3	56	9	24	i	j	2004.77	1	100	1000	0	0
105	4	37	?	P	d	252.57	NA	4	56	7	24	i	j	919.6	1	1000	100	0	0
105	4	38	?	P	d	1303.63	NA	3	24	8	56	c	n	802.52	1	100	100	0	0
105	4	39	?	N	f	285.88	NA	4	56	9	24	i	n	603.44	1	1000	100	0	0
105	4	40	?	N	f	719.59	NA	9	56	2	24	c	j	603.06	1	100	100	0	0
105	4	41	?	N	f	1403.63	NA	9	56	4	24	c	j	485.77	1	100	1000	0	0
105	4	42	?	P	d	1153.33	NA	8	24	2	56	i	n	1638.31	1	100	100	0	0
105	4	43	?	P	d	3639.3	NA	7	24	3	56	i	n	1203.92	1	1000	100	0	0
105	4	44	?	P	d	753.56	NA	4	56	7	24	i	j	803.17	1	100	100	0	0
105	4	45	?	P	d	502.25	NA	9	56	2	24	c	j	453.71	1	1000	1000	0	0
105	4	46	?	N	f	719.65	NA	9	56	4	24	c	j	936.97	1	100	100	0	0
105	4	47	?	N	f	335.75	NA	7	56	2	24	c	j	469.72	1	1000	1000	0	0
105	4	48	?	N	f	719.77	NA	3	56	9	24	i	n	903.5	1	100	100	0	0
105	4	49	?	P	d	219.3	NA	4	24	8	56	c	n	819.97	1	1000	1000	0	0
105	4	50	?	P	d	319.58	NA	7	56	2	24	c	j	634.87	1	1000	100	0	0
105	4	51	?	P	d	402.73	NA	8	24	4	56	i	n	635.72	1	1000	1000	0	0
105	4	52	?	P	d	336.24	NA	7	24	3	56	i	n	803.81	1	1000	1000	0	0
105	4	53	?	N	f	269.33	NA	9	56	2	24	c	j	669.66	1	1000	1000	0	0
105	4	54	?	N	f	319.32	NA	4	56	7	24	i	j	1037.48	0	100	100	0	0
105	4	55	?	N	f	836.5	NA	8	24	3	56	i	j	1387.59	1	1000	100	0	1
105	4	56	?	N	f	302.29	NA	4	24	7	56	c	n	1286.92	1	1000	1000	0	0
105	4	57	?	N	f	1036.13	NA	9	56	3	24	c	j	586.41	1	100	1000	0	0
105	4	58	?	N	f	1070.38	NA	2	56	8	24	i	n	1086.92	1	100	1000	0	0
105	4	59	?	P	d	386.12	NA	7	24	4	56	i	n	836.33	1	1000	1000	0	0
105	4	60	?	P	d	369.45	NA	7	56	2	24	c	j	1221.1	1	1000	100	0	0
105	4	61	?	P	d	302.7	NA	4	24	9	56	c	n	886.72	1	1000	100	0	0
105	4	62	?	P	d	1003.34	NA	2	24	9	56	c	n	1071.57	1	100	1000	0	0
105	4	63	?	N	f	352.85	NA	3	56	8	24	i	n	1904.74	1	1000	1000	0	0
105	4	64	?	N	f	1270.32	NA	2	24	8	56	c	n	920.04	1	100	100	0	0
105	4	65	?	N	f	319.35	NA	3	24	7	56	c	n	886.97	1	1000	100	0	0
105	5	1	?	N	f	1337.09	NA	7	56	4	24	c	j	686.29	1	1000	100	-1	0
105	5	2	?	P	d	219.06	NA	2	56	9	24	i	j	1153.38	1	1000	100	0	0
105	5	3	?	N	f	235.89	NA	4	56	8	24	i	n	953.61	1	1000	100	0	0
105	5	4	?	P	d	936.78	NA	9	24	2	56	i	n	1470.82	1	100	1000	0	0
105	5	5	?	N	f	302.23	NA	8	24	4	56	i	j	803.19	1	1000	1000	0	0
105	5	6	?	N	f	2489.21	NA	7	24	2	56	i	j	886.68	1	100	100	0	0
105	5	7	?	P	d	1153.29	NA	7	24	4	56	i	n	954.03	1	100	1000	0	0
105	5	8	?	N	f	1020.01	NA	7	56	2	24	c	j	802.4	1	100	100	0	0
105	5	9	?	P	d	1153.83	NA	4	24	9	56	c	n	836.47	1	100	100	0	0
105	5	10	?	P	d	185.72	NA	2	56	9	24	i	j	786.79	1	1000	1000	0	0
105	5	11	?	N	f	1120.87	NA	4	24	9	56	c	n	2071.35	1	100	1000	0	0
105	5	12	?	N	f	1153.66	NA	8	24	2	56	i	j	736.93	1	1000	1000	0	0
105	5	13	?	P	d	369.31	NA	4	24	8	56	c	n	1754.86	1	1000	100	0	0
105	5	14	?	N	f	802.36	NA	3	24	7	56	c	n	970.66	1	1000	100	0	0
105	5	15	?	N	f	269.79	NA	9	56	4	24	c	j	770.48	1	1000	100	0	0
105	5	16	?	N	f	1119.42	NA	3	24	7	56	c	n	903.48	1	100	1000	0	0
105	5	17	?	P	d	302.54	NA	2	24	7	56	c	n	669.81	1	1000	1000	0	0
105	5	18	?	P	d	301.99	NA	9	56	4	24	c	j	986.45	1	1000	1000	0	0
105	5	19	?	P	d	1184.94	NA	8	56	2	24	c	j	1037.39	1	100	100	0	0
105	5	20	?	P	d	285.29	NA	8	24	3	56	i	n	937.61	1	1000	100	0	0
105	5	21	?	N	f	1453.73	NA	4	24	9	56	c	n	920.11	1	100	100	0	0
105	5	22	?	N	f	250.55	NA	7	24	2	56	i	j	1120.75	1	1000	1000	0	0
105	5	23	?	N	f	669.69	NA	4	56	7	24	i	n	936.72	1	100	100	0	0
105	5	24	?	N	f	803.54	NA	9	56	2	24	c	j	619.53	1	100	1000	0	0
105	5	25	?	P	d	335.74	NA	8	56	4	24	c	j	653.94	1	1000	1000	0	0
105	5	26	?	P	d	886.46	NA	8	24	3	56	i	n	769.71	1	100	1000	0	0
105	5	27	?	P	d	1303.75	NA	2	56	9	24	i	j	803.57	1	100	1000	0	0
105	5	28	?	N	f	1154.43	NA	7	56	3	24	c	j	2188.1	1	100	1000	0	0
105	5	29	?	P	d	4957.96	NA	9	56	2	24	c	j	1036.62	1	1000	1000	0	0
105	5	30	?	N	f	35.61	NA	4	24	9	56	c	n	3639.79	1	1000	100	0	0
105	5	31	?	N	f	869.23	NA	3	56	7	24	i	n	1120.18	1	1000	100	0	0
105	5	32	?	N	f	352.79	NA	2	24	7	56	c	n	619.92	1	1000	100	0	0
105	5	33	?	P	d	703.2	NA	3	24	9	56	c	n	1504.04	1	100	1000	0	0
105	5	34	?	N	f	102.1	NA	4	56	9	24	i	n	1471.48	1	1000	1000	0	0
105	5	35	?	N	f	1570.19	NA	3	56	8	24	i	n	970.37	1	1000	1000	0	0
105	5	36	?	N	f	834.54	NA	4	24	8	56	c	n	537.15	1	1000	1000	0	0
105	5	37	?	P	d	369.44	NA	8	56	3	24	c	j	603.92	1	1000	1000	0	0
105	5	38	?	P	d	386.12	NA	4	24	7	56	c	n	1220.35	1	1000	1000	0	0
105	5	39	?	P	d	819.9	NA	9	56	3	24	c	j	602.76	1	100	100	0	0
105	5	40	?	P	d	352.69	NA	4	56	8	24	i	j	1635.35	1	1000	100	0	0
105	5	41	?	N	f	285.45	NA	9	56	3	24	c	j	1020.51	1	1000	100	0	0
105	5	42	?	N	f	953.82	NA	8	24	2	56	i	j	703.57	1	100	100	0	0
105	5	43	?	N	f	269.46	NA	7	56	3	24	c	j	535.83	1	1000	100	0	0
105	5	44	?	P	d	786.63	NA	7	24	4	56	i	n	552.64	1	100	100	0	0
105	5	45	?	N	f	552.87	NA	9	56	3	24	c	j	519.45	1	100	1000	0	0
105	5	46	?	P	d	485.48	NA	9	24	2	56	i	n	619.12	1	100	1000	0	0
105	5	47	?	N	f	285.64	NA	7	24	3	56	i	j	753.13	1	1000	100	0	0
105	5	48	?	P	d	1921.13	NA	2	56	7	24	i	j	1087.32	1	100	1000	0	0
105	5	49	?	N	f	486.09	NA	4	24	9	56	c	n	435.98	1	1000	1000	0	0
105	5	50	?	N	f	419.46	NA	8	24	2	56	i	j	803.48	1	1000	100	0	0
105	5	51	?	N	f	1320.51	NA	8	56	3	24	c	j	586.65	1	100	100	0	0
105	5	52	?	P	d	302.84	NA	9	24	4	56	i	n	1321.15	1	1000	1000	0	0
105	5	53	?	P	d	1153.74	NA	7	24	3	56	i	n	719.04	1	100	100	0	0
105	5	54	?	P	d	1053.3	NA	7	56	2	24	c	j	3656.92	1	100	1000	0	0
105	5	55	?	N	f	586.27	NA	8	24	3	56	i	j	536.04	1	100	100	0	0
105	5	56	?	N	f	619.72	NA	4	24	9	56	c	n	520.02	1	100	1000	0	0
105	5	57	?	P	d	553.43	NA	8	24	2	56	i	n	520.08	1	100	100	0	0
105	5	58	?	P	d	300.71	NA	8	56	3	24	c	j	720.15	1	1000	100	0	0
105	5	59	?	P	d	702.66	NA	4	56	7	24	i	j	503.74	1	100	1000	0	0
105	5	60	?	N	f	535.72	NA	9	24	2	56	i	j	550.59	1	100	1000	0	0
105	5	61	?	N	f	535.89	NA	8	24	3	56	i	j	653.01	1	100	100	0	0
105	5	62	?	P	d	100.7	NA	8	24	2	56	i	n	520.18	1	1000	100	0	0
105	5	63	?	N	f	485.89	NA	4	56	8	24	i	n	770.35	1	1000	1000	0	0
105	5	64	?	P	d	552.92	NA	3	24	7	56	c	n	603.4	1	100	100	0	0
105	5	65	?	P	d	652.99	NA	4	24	7	56	c	n	586.06	1	100	100	0	0
105	6	1	?	N	f	601.03	NA	2	24	9	56	c	n	1470.6	1	1000	100	-1	0
105	6	2	?	N	f	569.51	NA	3	24	9	56	c	n	653.04	1	100	1000	0	0
105	6	3	?	N	f	870.06	NA	7	56	4	24	c	j	535.5	1	100	100	0	0
105	6	4	?	P	d	318.68	NA	2	24	8	56	c	n	569.81	1	1000	1000	0	0
105	6	5	?	P	d	736.16	NA	8	24	4	56	i	n	670.86	1	100	1000	0	0
105	6	6	?	P	d	402.8	NA	2	24	9	56	c	n	535.95	1	1000	100	0	0
105	6	7	?	N	f	335.36	NA	4	56	7	24	i	j	869.72	0	1000	1000	0	0
105	6	8	?	N	f	4206.88	NA	3	56	8	24	i	n	1420.63	1	100	100	0	1
105	6	9	?	N	f	302.72	NA	4	56	8	24	i	n	653.78	1	1000	1000	0	0
105	6	10	?	P	d	619.09	NA	2	56	7	24	i	j	870.15	1	100	100	0	0
105	6	11	?	P	d	769.43	NA	4	24	7	56	c	n	753.3	1	100	100	0	0
105	6	12	?	N	f	820.23	NA	3	24	7	56	c	n	718.87	1	100	100	0	0
105	6	13	?	N	f	769.68	NA	9	24	2	56	i	j	803.08	1	100	100	0	0
105	6	14	?	P	d	552.77	NA	9	24	3	56	i	n	786.37	1	1000	100	0	0
105	6	15	?	P	d	269.35	NA	2	56	7	24	i	j	669.5	1	1000	100	0	0
105	6	16	?	N	f	152.6	NA	7	56	4	24	c	j	620.09	1	1000	1000	0	0
105	6	17	?	N	f	317.25	NA	9	24	2	56	i	j	819.92	1	1000	100	0	0
105	6	18	?	P	d	18.8	NA	8	24	4	56	i	n	1119.89	1	1000	1000	0	0
105	6	19	?	P	d	786.37	NA	2	56	9	24	i	j	836.57	1	100	1000	0	0
105	6	20	?	N	f	152.22	NA	8	24	3	56	i	j	619.52	1	1000	1000	0	0
105	6	21	?	N	f	2254.12	NA	7	24	2	56	i	j	553.25	1	1000	1000	0	0
105	6	22	?	N	f	819.4	NA	3	56	9	24	i	n	1537.49	1	100	100	0	0
105	6	23	?	P	d	302.59	NA	2	56	7	24	i	j	903.91	1	1000	100	0	0
105	6	24	?	P	d	753.18	NA	4	24	8	56	c	n	670.41	1	100	100	0	0
105	6	25	?	P	d	486.11	NA	9	56	2	24	c	j	869.74	1	1000	100	0	0
105	6	26	?	N	f	703.23	NA	7	24	3	56	i	j	520.34	1	100	1000	0	0
105	6	27	?	N	f	252.09	NA	8	56	2	24	c	j	837.01	1	1000	1000	0	0
105	6	28	?	N	f	903.6	NA	9	56	4	24	c	j	586.82	1	100	1000	0	0
105	6	29	?	P	d	1370.54	NA	2	56	7	24	i	j	887.56	1	100	100	0	0
105	6	30	?	P	d	703.02	NA	4	56	8	24	i	j	987.4	1	100	1000	0	0
105	6	31	?	N	f	669.74	NA	9	56	3	24	c	j	619.79	1	100	1000	0	0
105	6	32	?	N	f	603.13	NA	7	56	4	24	c	j	1187.12	1	100	100	0	0
105	6	33	?	N	f	1136.6	NA	9	56	2	24	c	j	519.05	1	100	100	0	0
105	6	34	?	P	d	18.97	NA	7	24	4	56	i	n	851.57	1	1000	100	0	0
105	6	35	?	P	d	684.52	NA	9	24	3	56	i	n	620.2	1	100	1000	0	0
105	6	36	?	P	d	302.54	NA	2	56	8	24	i	j	2471.69	1	1000	1000	0	0
105	6	37	?	P	d	484.06	NA	3	24	7	56	c	n	736.14	1	1000	1000	0	0
105	6	38	?	N	f	719.84	NA	7	56	4	24	c	j	469.66	1	1000	100	0	0
105	6	39	?	N	f	268.65	NA	7	24	2	56	i	j	1086.08	1	1000	100	0	0
105	6	40	?	N	f	686.7	NA	9	56	4	24	c	j	785.97	1	100	1000	0	0
105	6	41	?	P	d	335.89	NA	2	24	9	56	c	n	636.16	1	1000	100	0	0
105	6	42	?	P	d	335.8	NA	4	24	8	56	c	n	385.79	1	1000	1000	0	0
105	6	43	?	N	f	335.71	NA	9	24	2	56	i	j	453.28	1	1000	1000	0	0
105	6	44	?	P	d	703.12	NA	7	24	4	56	i	n	686.39	1	100	100	0	0
105	6	45	?	N	f	586.24	NA	3	24	9	56	c	n	519.69	1	100	1000	0	0
105	6	46	?	N	f	384.23	NA	2	56	7	24	i	n	670.05	1	1000	1000	0	0
105	6	47	?	P	d	302.78	NA	8	24	4	56	i	n	1036.32	1	1000	100	0	0
105	6	48	?	P	d	486.24	NA	3	24	7	56	c	n	436.3	1	100	1000	0	0
105	6	49	?	P	d	703.4	NA	8	24	2	56	i	n	1271.06	1	100	1000	0	0
105	6	50	?	N	f	335.97	NA	4	24	9	56	c	n	1336.96	1	1000	100	0	0
105	6	51	?	N	f	285.99	NA	9	56	3	24	c	j	703.26	1	1000	100	0	0
105	6	52	?	P	d	619.86	NA	4	24	7	56	c	n	870.28	1	100	1000	0	0
105	6	53	?	N	f	1687.47	NA	2	24	9	56	c	n	603.4	1	1000	100	0	0
105	6	54	?	P	d	386.13	NA	9	24	3	56	i	n	719.72	1	1000	100	0	0
105	6	55	?	P	d	519.75	NA	4	56	7	24	i	j	703.46	1	100	100	0	0
105	6	56	?	N	f	285.99	NA	3	24	7	56	c	n	586.6	1	1000	1000	0	0
105	6	57	?	N	f	619.84	NA	9	56	2	24	c	j	753.69	1	100	1000	0	0
105	6	58	?	P	d	553.05	NA	9	24	3	56	i	n	1053.15	1	100	100	0	0
105	6	59	?	P	d	669.64	NA	2	56	7	24	i	j	620.35	1	100	1000	0	0
105	6	60	?	P	d	1120.3	NA	7	56	3	24	c	j	920.22	1	1000	1000	0	0
105	6	61	?	P	d	619.91	NA	8	56	4	24	c	j	886.92	1	100	100	0	0
105	6	62	?	N	f	918.24	NA	3	24	7	56	c	n	769.19	1	100	100	0	0
105	6	63	?	N	f	735.88	NA	7	56	2	24	c	j	869.79	1	1000	100	0	0
105	6	64	?	N	f	419.35	NA	9	56	3	24	c	j	819.36	1	1000	1000	0	0
105	6	65	?	N	f	1654.18	NA	4	56	7	24	i	n	1020.67	1	100	1000	0	0
