subj	block	trial	task_cue	task	choice_resp	choiceRT	choice_acc	topnum	topsize	botnum	botsize	cong	task_resp	taskRT	task_acc	RSI	CSI	altRep	E1
106	1	1	N	N	d	970.07	0	4	56	8	24	i	n	669.69	1	100	1000	-1	0
106	1	2	N	N	f	787.86	0	8	56	2	24	c	j	520.23	1	1000	1000	0	0
106	1	3	N	N	f	853.26	0	7	56	3	24	c	j	553.07	1	100	1000	0	0
106	1	4	N	N	f	1070.12	0	2	56	8	24	i	n	2521.94	1	100	100	0	0
106	1	5	N	N	d	1103.31	0	3	24	8	56	c	n	1187.46	1	1000	100	0	0
106	1	6	N	N	d	886.51	0	9	24	4	56	i	j	1554.55	1	1000	1000	0	0
106	1	7	P	P	f	636.61	1	3	24	9	56	c	n	652.32	1	1000	1000	1	0
106	1	8	N	N	d	653.09	0	8	24	4	56	i	j	1420.27	1	1000	1000	1	0
106	1	9	P	P	f	969.73	1	9	56	3	24	c	j	1003.09	1	100	100	1	0
106	1	10	N	N	d	453.0	0	4	24	7	56	c	n	1002.49	1	1000	100	1	0
106	1	11	P	P	f	719.86	1	7	24	3	56	i	n	619.7	1	1000	1000	1	0
106	1	12	N	N	d	652.95	0	9	24	2	56	i	j	904.37	1	1000	100	1	0
106	1	13	N	N	d	820.34	0	8	24	4	56	i	j	770.18	1	100	100	0	0
106	1	14	N	N	d	653.23	0	7	24	2	56	i	j	820.04	1	1000	100	0	0
106	1	15	N	N	d	653.33	0	3	56	7	24	i	n	769.88	1	100	1000	0	0
106	1	16	P	P	f	435.52	1	7	56	2	24	c	j	553.0	1	1000	1000	1	0
106	1	17	N	N	d	803.44	0	4	56	8	24	i	n	769.83	1	100	1000	1	0
106	1	18	P	P	f	1204.24	1	2	24	7	56	c	n	586.77	1	100	1000	1	0
106	1	19	P	P	f	1119.81	1	3	24	9	56	c	n	586.84	1	100	100	0	0
106	1	20	P	P	f	667.84	1	2	24	9	56	c	n	503.22	1	1000	1000	0	0
106	1	21	N	N	d	753.33	0	8	56	4	24	c	j	1336.75	1	100	100	1	0
106	1	22	P	P	f	851.67	1	9	24	3	56	i	n	719.92	1	100	1000	1	0
106	1	23	P	P	f	1203.25	1	8	24	2	56	i	n	870.26	1	1000	100	0	0
106	1	24	P	P	f	654.3	1	4	56	7	24	i	j	754.22	1	100	100	0	0
106	1	25	P	P	f	518.94	1	8	56	2	24	c	j	753.47	1	100	1000	0	0
106	1	26	P	P	f	636.37	1	8	24	4	56	i	n	653.6	1	100	1000	0	0
106	1	27	N	N	d	502.78	0	2	56	8	24	i	n	720.33	1	1000	1000	1	0
106	1	28	N	N	d	517.74	0	9	56	4	24	c	j	720.56	1	1000	100	0	0
106	1	29	P	P	f	786.58	1	7	24	3	56	i	n	753.06	1	1000	100	1	0
106	1	30	P	P	f	1036.69	1	7	56	4	24	c	j	668.9	1	100	100	0	0
106	1	31	N	N	d	768.03	0	7	24	2	56	i	n	1136.79	0	100	100	1	0
106	1	32	P	P	f	836.69	1	8	56	4	24	c	j	836.46	1	1000	100	1	1
106	1	33	P	P	f	619.4	1	2	24	7	56	c	n	853.82	1	1000	100	0	0
106	1	34	P	P	f	1086.33	1	3	56	7	24	i	j	503.12	1	1000	100	0	0
106	1	35	N	N	d	819.67	0	7	56	4	24	c	j	1137.42	1	100	1000	1	0
106	1	36	N	N	d	1704.34	0	3	24	9	56	c	n	786.3	1	100	1000	0	0
106	1	37	N	N	d	653.25	0	9	56	4	24	c	j	869.88	1	100	100	0	0
106	1	38	P	P	f	1120.29	1	3	24	8	56	c	n	1535.83	1	1000	100	1	0
106	1	39	P	P	f	619.49	1	9	56	4	24	c	j	853.22	1	1000	100	0	0
106	1	40	N	N	d	986.73	0	2	56	7	24	i	n	1871.74	1	100	100	1	0
106	1	41	P	P	f	686.72	1	3	56	9	24	i	j	620.75	1	1000	100	1	0
106	1	42	N	N	d	703.04	0	4	56	9	24	i	n	937.35	1	1000	100	1	0
106	1	43	P	P	f	970.25	1	8	24	2	56	i	n	954.37	1	100	100	1	0
106	1	44	N	N	d	903.35	0	9	24	4	56	i	j	886.74	1	100	1000	1	0
106	1	45	N	N	d	1153.36	0	9	24	2	56	i	j	552.87	1	100	1000	0	0
106	1	46	N	N	d	869.16	0	4	24	9	56	c	n	803.25	1	1000	1000	0	0
106	1	47	N	N	d	653.15	0	3	56	7	24	i	n	753.86	1	1000	1000	0	0
106	1	48	N	N	d	553.08	0	2	24	8	56	c	n	719.8	1	100	100	0	0
106	1	49	P	P	f	1003.41	1	9	56	3	24	c	j	903.52	1	100	1000	1	0
106	1	50	N	N	d	652.77	0	2	24	7	56	c	n	1487.95	1	100	100	1	0
106	1	51	P	P	f	1854.56	1	4	56	9	24	i	j	720.33	1	1000	1000	1	0
106	1	52	P	P	f	636.1	1	8	56	3	24	c	j	1003.45	1	1000	1000	0	0
106	1	53	P	P	f	553.03	1	4	56	7	24	i	j	669.92	1	1000	1000	0	0
106	1	54	P	P	f	535.63	1	9	24	3	56	i	n	1219.89	1	1000	1000	0	0
106	1	55	P	P	f	769.92	1	4	24	7	56	c	n	937.01	1	100	1000	0	0
106	1	56	N	N	d	469.64	0	2	24	8	56	c	n	1003.96	1	1000	1000	1	0
106	1	57	P	P	f	786.39	1	4	56	8	24	i	j	785.95	1	100	100	1	0
106	1	58	N	N	d	736.52	0	3	24	9	56	c	n	669.95	1	100	1000	1	0
106	1	59	P	P	f	686.26	1	4	24	8	56	c	n	735.73	1	100	100	1	0
106	1	60	N	N	d	952.89	0	8	56	3	24	c	j	1052.92	1	1000	1000	1	0
106	1	61	N	N	d	869.85	0	2	56	7	24	i	n	736.37	1	1000	100	0	0
106	1	62	P	P	f	803.19	1	3	56	8	24	i	j	469.37	1	100	1000	1	0
106	1	63	P	P	f	969.91	1	8	24	4	56	i	n	603.46	1	100	100	0	0
106	1	64	P	P	f	486.11	1	3	56	7	24	i	j	636.39	1	100	1000	0	0
106	1	65	N	N	d	584.29	0	8	56	2	24	c	j	887.49	1	1000	100	1	0
106	2	1	P	P	f	635.92	1	2	56	8	24	i	j	920.2	1	1000	100	-1	0
106	2	2	N	N	d	619.87	0	7	56	3	24	c	j	853.52	1	1000	100	1	0
106	2	3	P	P	f	853.56	1	9	24	2	56	i	n	1221.01	1	1000	100	1	0
106	2	4	P	P	f	953.34	1	8	56	4	24	c	j	820.61	1	1000	100	0	0
106	2	5	N	N	d	653.32	0	7	24	3	56	i	j	1053.69	1	1000	1000	1	0
106	2	6	P	P	f	619.84	1	8	56	2	24	c	j	500.84	1	1000	1000	1	0
106	2	7	P	P	f	919.66	1	4	24	9	56	c	n	1936.47	1	1000	1000	0	0
106	2	8	N	N	d	652.37	0	2	56	7	24	i	n	1270.59	1	100	1000	1	0
106	2	9	N	N	d	953.11	0	9	56	3	24	c	j	803.65	1	100	1000	0	0
106	2	10	N	N	d	636.41	0	4	24	7	56	c	n	670.59	1	100	1000	0	0
106	2	11	N	N	d	719.58	0	2	56	7	24	i	n	769.81	1	1000	100	0	0
106	2	12	P	P	f	684.22	1	9	24	4	56	i	n	586.42	1	1000	1000	1	0
106	2	13	P	P	f	853.41	1	2	24	7	56	c	n	886.53	1	100	1000	0	0
106	2	14	P	P	f	736.9	1	8	24	4	56	i	n	686.65	1	1000	100	0	0
106	2	15	N	N	d	719.79	0	3	24	8	56	c	n	986.98	1	100	100	1	0
106	2	16	N	N	d	486.21	0	2	24	9	56	c	n	619.66	1	1000	1000	0	0
106	2	17	N	N	d	636.02	0	8	24	4	56	i	j	703.9	1	1000	1000	0	0
106	2	18	P	P	f	786.39	1	3	56	9	24	i	j	853.06	1	100	100	1	0
106	2	19	P	P	f	586.45	1	8	24	2	56	i	n	786.68	1	100	100	0	0
106	2	20	N	N	d	753.13	0	3	56	8	24	i	n	1204.29	1	100	100	1	0
106	2	21	N	N	d	636.37	0	2	56	9	24	i	n	603.78	1	100	100	0	0
106	2	22	P	P	f	703.3	1	7	56	4	24	c	j	534.54	1	100	1000	1	0
106	2	23	N	N	d	736.68	0	7	24	2	56	i	j	584.4	1	100	1000	1	0
106	2	24	P	P	f	719.12	1	4	24	9	56	c	n	968.6	1	1000	100	1	0
106	2	25	P	P	f	519.24	1	3	56	7	24	i	j	670.27	1	100	1000	0	0
106	2	26	N	N	d	786.6	0	9	24	4	56	i	j	803.8	1	1000	100	1	0
106	2	27	P	P	f	669.97	1	3	24	7	56	c	n	1420.57	1	100	1000	1	0
106	2	28	P	P	f	619.56	1	4	56	7	24	i	j	886.91	1	1000	100	0	0
106	2	29	N	N	d	669.82	0	2	24	9	56	c	n	552.52	1	1000	1000	1	0
106	2	30	N	N	d	870.36	0	8	24	3	56	i	j	620.54	1	100	100	0	0
106	2	31	N	N	d	636.52	0	7	24	4	56	i	j	669.83	1	100	1000	0	0
106	2	32	N	N	d	552.95	0	3	24	8	56	c	n	820.8	1	100	100	0	0
106	2	33	N	N	d	603.24	0	9	56	2	24	c	j	603.77	1	1000	1000	0	0
106	2	34	P	P	f	603.32	1	8	56	4	24	c	j	1187.9	1	100	100	1	0
106	2	35	N	N	d	717.85	0	9	56	3	24	c	j	720.45	1	100	100	1	0
106	2	36	P	P	f	703.09	1	2	56	8	24	i	j	920.02	1	1000	100	1	0
106	2	37	P	P	f	586.74	1	7	56	3	24	c	j	619.64	1	100	1000	0	0
106	2	38	P	P	f	1187.07	1	8	56	2	24	c	j	737.55	1	1000	1000	0	0
106	2	39	N	N	d	853.52	0	8	24	4	56	i	j	936.34	1	100	100	1	0
106	2	40	N	N	d	502.86	0	3	56	9	24	i	n	751.63	1	1000	1000	0	0
106	2	41	N	N	d	702.68	0	8	56	4	24	c	j	836.36	1	1000	100	0	0
106	2	42	P	P	f	2255.5	1	7	24	2	56	i	n	987.19	1	100	1000	1	0
106	2	43	N	N	d	1169.85	0	4	24	9	56	c	n	636.1	1	100	1000	1	0
106	2	44	N	N	d	936.46	0	7	24	2	56	i	j	1521.6	1	1000	100	0	0
106	2	45	P	P	f	802.17	1	9	56	3	24	c	j	618.04	1	1000	100	1	0
106	2	46	N	N	d	702.77	0	2	56	8	24	i	n	653.54	1	1000	100	1	0
106	2	47	N	N	d	586.45	0	3	24	8	56	c	n	502.91	1	1000	100	0	0
106	2	48	P	P	f	786.52	1	4	56	7	24	i	j	619.9	1	100	1000	1	0
106	2	49	P	P	f	869.96	1	2	56	8	24	i	j	519.38	1	1000	1000	0	0
106	2	50	P	P	f	652.78	1	3	56	9	24	i	j	669.52	1	100	100	0	0
106	2	51	P	P	f	652.81	1	4	24	9	56	c	n	636.9	1	1000	100	0	0
106	2	52	P	P	f	802.99	1	2	24	9	56	c	n	635.74	1	100	100	0	0
106	2	53	N	N	d	786.4	0	4	24	8	56	c	n	736.42	1	1000	100	1	0
106	2	54	P	P	f	617.67	1	2	24	8	56	c	n	837.1	1	1000	1000	1	0
106	2	55	N	N	d	702.99	0	4	56	9	24	i	n	1120.73	1	1000	1000	1	0
106	2	56	N	N	d	920.55	0	2	56	8	24	i	n	569.59	1	100	1000	0	0
106	2	57	P	P	f	720.03	1	4	56	9	24	i	j	720.59	1	1000	1000	1	0
106	2	58	N	N	d	702.89	0	8	56	3	24	c	j	1103.72	1	1000	1000	1	0
106	2	59	P	P	f	753.93	1	9	24	2	56	i	n	887.31	1	100	100	1	0
106	2	60	P	P	f	669.83	1	8	56	3	24	c	j	903.48	1	100	100	0	0
106	2	61	N	N	d	753.45	0	9	56	4	24	c	j	802.88	1	100	1000	1	0
106	2	62	N	N	d	953.35	0	9	56	3	24	c	j	602.92	1	100	100	0	0
106	2	63	P	P	f	720.83	1	2	24	7	56	c	n	553.27	1	100	100	1	0
106	2	64	P	P	f	1020.4	1	9	24	4	56	i	n	554.05	1	1000	1000	0	0
106	2	65	P	P	f	652.89	1	7	24	2	56	i	n	453.51	1	100	1000	0	0
106	3	1	P	P	f	670.0	1	4	56	7	24	i	j	502.85	1	1000	100	-1	0
106	3	2	P	P	f	586.35	1	3	24	8	56	c	n	519.76	1	100	1000	0	0
106	3	3	P	P	f	436.41	1	8	56	4	24	c	j	469.58	1	100	100	0	0
106	3	4	N	N	d	619.49	0	3	56	8	24	i	n	602.91	1	100	1000	1	0
106	3	5	P	P	f	636.35	1	7	56	4	24	c	j	403.28	1	100	1000	1	0
106	3	6	P	P	f	469.95	1	8	56	2	24	c	j	436.45	1	100	1000	0	0
106	3	7	N	N	d	552.98	0	7	56	4	24	c	j	552.74	1	1000	1000	1	0
106	3	8	P	P	f	753.38	1	9	24	3	56	i	n	620.42	1	1000	100	1	0
106	3	9	P	P	f	503.54	1	9	24	2	56	i	n	552.96	1	100	100	0	0
106	3	10	P	P	f	536.06	1	4	24	7	56	c	n	535.55	1	1000	100	0	0
106	3	11	P	P	f	569.64	1	9	24	3	56	i	n	619.43	1	1000	100	0	0
106	3	12	N	N	d	469.62	0	2	24	7	56	c	n	1069.81	1	1000	100	1	0
106	3	13	N	N	d	553.65	0	9	56	3	24	c	j	602.65	1	100	100	0	0
106	3	14	P	P	f	719.64	1	4	56	8	24	i	j	502.82	1	1000	100	1	0
106	3	15	P	P	f	535.55	1	2	56	7	24	i	j	920.59	1	100	100	0	0
106	3	16	N	N	d	753.52	0	8	24	3	56	i	j	620.03	1	1000	1000	1	0
106	3	17	N	N	d	585.87	0	9	56	4	24	c	j	770.18	1	1000	100	0	0
106	3	18	P	P	f	653.14	1	7	24	3	56	i	n	568.11	1	1000	1000	1	0
106	3	19	N	N	d	787.14	0	4	56	7	24	i	n	968.97	1	100	100	1	0
106	3	20	P	P	f	817.82	1	2	24	8	56	c	n	1053.56	1	100	1000	1	0
106	3	21	N	N	d	720.01	0	3	56	9	24	i	j	601.47	0	1000	1000	1	0
106	3	22	N	N	d	636.41	0	4	56	7	24	i	n	686.69	1	1000	1000	0	1
106	3	23	N	N	d	619.67	0	3	24	9	56	c	n	736.07	1	1000	100	0	0
106	3	24	N	N	d	636.25	0	8	24	2	56	i	j	903.46	1	1000	100	0	0
106	3	25	N	N	d	651.18	0	3	24	9	56	c	n	1120.22	1	100	100	0	0
106	3	26	N	N	d	836.32	0	8	24	2	56	i	j	1084.67	1	100	100	0	0
106	3	27	P	P	f	686.65	1	7	56	4	24	c	j	819.09	1	100	100	1	0
106	3	28	P	P	f	569.7	1	3	56	7	24	i	j	586.55	1	1000	1000	0	0
106	3	29	P	P	f	418.9	1	2	24	7	56	c	n	1037.51	1	1000	1000	0	0
106	3	30	P	P	f	519.64	1	7	24	3	56	i	n	870.73	1	1000	1000	0	0
106	3	31	P	P	f	636.19	1	8	56	2	24	c	j	1053.92	1	1000	100	0	0
106	3	32	N	N	d	636.44	0	7	56	4	24	c	j	702.53	1	100	100	1	0
106	3	33	P	P	f	818.1	1	8	24	3	56	i	n	686.42	1	100	100	1	0
106	3	34	N	N	d	703.13	0	2	24	7	56	c	n	669.48	1	100	1000	1	0
106	3	35	P	P	f	719.84	1	8	56	4	24	c	j	903.92	1	1000	100	1	0
106	3	36	P	P	f	620.07	1	9	24	2	56	i	n	686.1	1	100	1000	0	0
106	3	37	N	N	d	469.75	0	4	24	7	56	c	n	652.99	1	1000	1000	1	0
106	3	38	P	P	f	569.71	1	7	56	2	24	c	j	603.63	1	1000	1000	1	0
106	3	39	P	P	f	502.98	1	4	56	7	24	i	j	452.77	1	100	1000	0	0
106	3	40	N	N	d	752.67	0	8	24	3	56	i	j	936.85	1	100	1000	1	0
106	3	41	P	P	f	636.45	1	4	24	7	56	c	n	752.94	1	100	100	1	0
106	3	42	P	P	f	603.28	1	3	56	7	24	i	j	652.49	1	1000	100	0	0
106	3	43	N	N	d	586.73	0	8	24	4	56	i	j	951.92	1	1000	100	1	0
106	3	44	N	N	d	886.78	0	7	56	3	24	c	j	686.11	1	100	1000	0	0
106	3	45	N	N	d	602.96	0	9	24	4	56	i	j	669.58	1	100	1000	0	0
106	3	46	N	N	d	886.81	0	3	56	8	24	i	n	1087.52	1	1000	100	0	0
106	3	47	P	P	f	635.95	1	2	24	8	56	c	n	920.08	1	1000	100	1	0
106	3	48	P	P	f	586.09	1	9	56	4	24	c	j	904.12	1	1000	1000	0	0
106	3	49	N	N	d	836.77	0	7	56	2	24	c	j	853.17	1	100	1000	1	0
106	3	50	P	P	f	734.5	1	3	56	7	24	i	j	653.34	1	100	1000	1	0
106	3	51	N	N	d	436.01	0	9	56	4	24	c	j	734.93	1	1000	100	1	0
106	3	52	N	N	d	536.36	0	3	24	9	56	c	n	919.92	1	1000	1000	0	0
106	3	53	N	N	d	586.32	0	2	24	9	56	c	n	684.47	1	100	1000	0	0
106	3	54	P	P	f	703.12	1	3	24	9	56	c	n	886.53	1	1000	1000	1	0
106	3	55	P	P	f	585.42	1	4	24	9	56	c	n	636.47	1	100	100	0	0
106	3	56	N	N	d	703.34	0	8	24	2	56	i	j	770.32	1	100	100	1	0
106	3	57	N	N	d	1086.98	0	3	56	7	24	i	n	751.64	1	100	1000	0	0
106	3	58	P	P	f	669.85	1	4	56	8	24	i	j	837.15	1	100	100	1	0
106	3	59	N	N	d	552.75	0	3	56	7	24	i	n	1036.73	1	1000	100	1	0
106	3	60	N	N	d	937.02	0	7	24	2	56	i	j	636.78	1	1000	1000	0	0
106	3	61	P	P	f	786.61	1	4	56	9	24	i	j	736.57	1	1000	1000	1	0
106	3	62	N	N	d	984.87	0	2	24	8	56	c	n	786.68	1	100	100	1	0
106	3	63	N	N	d	853.05	0	8	56	3	24	c	j	803.8	1	1000	1000	0	0
106	3	64	N	N	d	753.33	0	4	56	8	24	i	n	904.38	1	100	100	0	0
106	3	65	P	P	f	1136.96	1	8	24	2	56	i	n	953.14	1	100	1000	1	0
106	4	1	N	N	d	837.07	0	8	24	2	56	i	j	686.17	1	100	100	-1	0
106	4	2	N	N	d	536.44	0	4	24	9	56	c	n	636.64	1	100	100	0	0
106	4	3	N	N	d	519.79	0	2	56	9	24	i	n	620.1	1	1000	1000	0	0
106	4	4	P	P	f	586.29	1	4	24	8	56	c	n	535.99	1	100	1000	1	0
106	4	5	P	P	f	519.42	1	2	56	8	24	i	j	433.89	1	100	1000	0	0
106	4	6	P	P	f	452.37	1	3	24	8	56	c	n	469.79	1	100	1000	0	0
106	4	7	P	P	f	602.38	1	4	24	7	56	c	n	602.59	1	1000	100	0	0
106	4	8	N	N	d	619.75	0	2	24	7	56	c	n	636.77	1	100	1000	1	0
106	4	9	P	P	f	619.7	1	9	56	3	24	c	j	454.03	1	100	1000	1	0
106	4	10	P	P	f	636.51	1	9	56	2	24	c	j	720.23	1	100	1000	0	0
106	4	11	N	N	d	586.59	0	9	56	3	24	c	j	1020.2	1	100	100	1	0
106	4	12	P	P	f	619.82	1	8	24	4	56	i	n	736.61	1	100	1000	1	0
106	4	13	P	P	f	719.73	1	9	56	3	24	c	j	1386.58	1	1000	100	0	0
106	4	14	N	N	d	603.11	0	4	24	8	56	c	n	937.12	1	100	100	1	0
106	4	15	P	P	f	786.82	1	7	24	2	56	i	n	869.48	1	1000	100	1	0
106	4	16	N	N	d	670.74	0	3	56	9	24	i	n	853.97	1	100	1000	1	0
106	4	17	N	N	d	1019.9	0	2	56	9	24	i	n	703.78	1	1000	100	0	0
106	4	18	N	N	d	719.77	0	3	24	7	56	c	n	620.23	1	100	1000	0	0
106	4	19	N	N	d	536.03	0	8	24	2	56	i	j	686.94	1	1000	1000	0	0
106	4	20	P	P	f	469.15	1	3	24	7	56	c	n	636.46	1	1000	100	1	0
106	4	21	P	P	f	469.71	1	4	56	7	24	i	j	736.65	1	1000	1000	0	0
106	4	22	N	N	d	536.31	0	2	24	9	56	c	n	652.32	1	1000	1000	1	0
106	4	23	P	P	f	786.06	1	7	24	4	56	i	n	1104.05	1	100	100	1	0
106	4	24	P	P	f	703.43	1	9	56	3	24	c	j	836.71	1	100	100	0	0
106	4	25	N	N	d	653.06	0	9	56	2	24	c	j	854.08	1	1000	100	1	0
106	4	26	P	P	f	569.56	1	8	24	3	56	i	n	637.03	1	1000	1000	1	0
106	4	27	P	P	f	519.58	1	7	24	4	56	i	n	636.41	1	1000	1000	0	0
106	4	28	N	N	d	602.79	0	2	56	9	24	i	n	1053.45	1	1000	100	1	0
106	4	29	P	P	f	736.81	1	4	56	7	24	i	j	937.18	1	100	1000	1	0
106	4	30	N	N	d	603.07	0	8	24	2	56	i	j	669.55	1	1000	100	1	0
106	4	31	P	P	f	653.96	1	3	24	9	56	c	n	653.32	1	100	100	1	0
106	4	32	N	N	d	1003.0	0	7	24	2	56	i	j	637.03	1	1000	1000	1	0
106	4	33	P	P	f	1020.18	1	4	24	8	56	c	n	652.35	1	1000	1000	1	0
106	4	34	P	P	f	653.32	1	2	56	7	24	i	j	853.24	1	100	100	0	0
106	4	35	P	P	f	519.31	1	3	24	7	56	c	n	635.96	1	100	100	0	0
106	4	36	P	P	f	585.08	1	7	24	4	56	i	n	651.08	1	100	1000	0	0
106	4	37	P	P	f	636.36	1	2	24	8	56	c	n	736.58	1	1000	1000	0	0
106	4	38	P	P	f	637.5	1	3	56	7	24	i	j	701.5	1	1000	100	0	0
106	4	39	N	N	d	669.77	0	9	24	2	56	i	j	669.89	1	100	100	1	0
106	4	40	P	P	f	786.49	1	4	56	7	24	i	j	653.8	1	1000	1000	1	0
106	4	41	N	N	d	502.48	0	7	56	3	24	c	j	1087.34	1	100	1000	1	0
106	4	42	N	N	d	752.96	0	4	24	8	56	c	n	668.89	1	1000	100	0	0
106	4	43	N	N	d	553.01	0	7	56	3	24	c	j	703.2	1	1000	1000	0	0
106	4	44	P	P	f	636.37	1	8	56	4	24	c	j	569.62	1	1000	1000	1	0
106	4	45	N	N	d	851.32	0	2	56	8	24	i	n	653.56	1	1000	1000	1	0
106	4	46	N	N	d	669.94	0	3	24	7	56	c	n	1153.68	1	1000	1000	0	0
106	4	47	N	N	d	702.56	0	4	56	9	24	i	n	851.59	1	100	100	0	0
106	4	48	N	N	d	718.7	0	9	56	2	24	c	j	686.99	1	100	100	0	0
106	4	49	P	P	f	718.16	1	8	56	3	24	c	j	720.06	1	100	100	1	0
106	4	50	P	P	f	853.29	1	9	56	2	24	c	j	1120.08	1	1000	1000	0	0
106	4	51	N	N	d	652.34	0	3	24	8	56	c	n	602.82	1	1000	100	1	0
106	4	52	P	P	f	653.25	1	4	56	7	24	i	j	1154.03	1	1000	100	1	0
106	4	53	P	P	f	652.9	1	7	24	3	56	i	n	854.16	1	100	100	0	0
106	4	54	P	P	f	652.9	1	9	24	4	56	i	n	1303.53	1	1000	100	0	0
106	4	55	N	N	d	486.0	0	7	56	2	24	c	j	586.77	1	1000	1000	1	0
106	4	56	N	N	d	503.1	0	9	56	4	24	c	j	802.9	1	1000	100	0	0
106	4	57	P	P	f	719.42	1	2	56	8	24	i	j	1104.11	1	100	100	1	0
106	4	58	N	N	d	618.98	0	4	56	9	24	i	n	735.72	1	100	100	1	0
106	4	59	N	N	d	953.69	0	8	56	3	24	c	j	786.52	1	100	1000	0	0
106	4	60	N	N	d	786.54	0	2	56	9	24	i	n	1070.63	1	100	1000	0	0
106	4	61	N	N	d	617.8	0	7	24	3	56	i	j	868.67	1	100	100	0	0
106	4	62	N	N	d	536.2	0	8	24	2	56	i	j	620.05	1	1000	100	0	0
106	4	63	P	P	f	569.65	1	7	56	3	24	c	j	737.0	1	1000	100	1	0
106	4	64	N	N	d	570.02	0	8	24	2	56	i	j	569.51	1	100	1000	1	0
106	4	65	N	N	d	520.27	0	8	24	3	56	i	j	519.5	1	100	1000	0	0
106	5	1	P	P	f	736.52	1	4	56	7	24	i	j	469.31	1	100	1000	-1	0
106	5	2	P	P	f	386.1	1	2	24	9	56	c	n	653.52	1	1000	1000	0	0
106	5	3	P	P	f	368.27	1	9	56	4	24	c	j	435.53	1	1000	1000	0	0
106	5	4	P	P	f	435.76	1	8	56	3	24	c	j	720.65	1	100	100	0	0
106	5	5	N	N	d	586.72	0	4	56	7	24	i	n	586.91	1	100	1000	1	0
106	5	6	N	N	d	552.8	0	2	24	8	56	c	n	669.78	1	100	1000	0	0
106	5	7	P	P	f	552.96	1	8	24	4	56	i	n	853.82	1	100	1000	1	0
106	5	8	N	N	d	619.28	0	3	24	7	56	c	n	770.04	1	100	100	1	0
106	5	9	P	P	f	851.47	1	4	56	8	24	i	j	502.06	1	1000	100	1	0
106	5	10	N	N	d	720.12	0	2	24	9	56	c	n	753.4	1	1000	100	1	0
106	5	11	P	P	f	503.16	1	8	56	3	24	c	j	784.76	1	1000	100	1	0
106	5	12	N	N	d	519.73	0	4	56	9	24	i	n	703.51	1	1000	100	1	0
106	5	13	N	N	d	719.84	0	2	56	8	24	i	n	520.17	1	100	1000	0	0
106	5	14	N	N	d	502.92	0	7	24	3	56	i	j	769.65	1	100	1000	0	0
106	5	15	N	N	d	468.52	0	7	24	2	56	i	j	788.19	1	100	100	0	0
106	5	16	P	P	f	584.58	1	4	24	9	56	c	n	553.54	1	100	1000	1	0
106	5	17	N	N	d	535.91	0	2	24	9	56	c	n	670.09	1	1000	1000	1	0
106	5	18	N	N	d	686.51	0	3	56	7	24	i	n	1186.94	1	1000	1000	0	0
106	5	19	N	N	d	686.21	0	4	24	8	56	c	n	653.16	1	1000	1000	0	0
106	5	20	P	P	f	486.47	1	7	24	3	56	i	n	854.05	1	1000	1000	1	0
106	5	21	P	P	f	602.96	1	8	24	2	56	i	n	720.36	1	100	100	0	0
106	5	22	P	P	f	419.36	1	4	56	7	24	i	j	619.55	1	100	100	0	0
106	5	23	P	P	f	452.8	1	9	24	2	56	i	n	570.3	1	100	1000	0	0
106	5	24	P	P	f	1220.21	1	4	24	9	56	c	n	953.18	1	100	1000	0	0
106	5	25	N	N	d	586.91	0	7	24	3	56	i	j	553.32	1	100	1000	1	0
106	5	26	P	P	d	486.67	1	8	56	2	24	c	j	2855.99	1	100	100	1	0
106	5	27	N	N	d	786.69	0	8	56	3	24	c	j	1053.39	1	100	100	1	0
106	5	28	N	N	d	1587.48	0	7	56	4	24	c	j	1104.15	1	1000	100	0	0
106	5	29	N	N	d	586.38	0	2	56	9	24	i	n	870.34	1	100	100	0	0
106	5	30	N	N	d	502.94	0	8	56	4	24	c	j	569.63	1	100	1000	0	0
106	5	31	P	P	f	603.31	1	8	24	3	56	i	n	719.67	1	100	100	1	0
106	5	32	N	N	d	603.21	0	7	24	4	56	i	j	819.94	1	1000	1000	1	0
106	5	33	N	N	d	536.13	0	2	24	7	56	c	n	769.97	1	1000	100	0	0
106	5	34	P	P	f	1053.54	1	3	24	8	56	c	n	1003.68	1	1000	100	1	0
106	5	35	P	P	f	552.76	1	7	24	2	56	i	n	1004.0	1	1000	1000	0	0
106	5	36	N	N	d	586.6	0	9	24	3	56	i	j	904.33	1	100	100	1	0
106	5	37	P	P	f	920.17	1	7	24	2	56	i	n	1103.84	1	1000	100	1	0
106	5	38	N	N	d	553.13	0	8	56	4	24	c	j	571.11	1	100	1000	1	0
106	5	39	P	P	f	620.35	1	7	56	2	24	c	j	486.87	1	100	1000	1	0
106	5	40	P	P	f	636.39	1	4	56	7	24	i	j	637.04	1	100	1000	0	0
106	5	41	P	P	f	670.86	1	3	24	8	56	c	n	1186.86	1	100	100	0	0
106	5	42	P	P	f	652.99	1	7	56	2	24	c	j	502.76	1	100	1000	0	0
106	5	43	N	N	d	885.99	0	8	56	4	24	c	j	586.69	1	1000	100	1	0
106	5	44	N	N	d	418.97	0	2	24	7	56	c	n	735.9	1	100	100	0	0
106	5	45	N	N	d	569.07	0	3	56	8	24	i	n	1136.73	1	1000	100	0	0
106	5	46	N	N	d	534.15	0	8	56	4	24	c	j	686.86	1	1000	1000	0	0
106	5	47	N	N	d	469.58	0	8	56	2	24	c	j	619.78	1	100	100	0	0
106	5	48	P	P	f	769.89	1	7	56	4	24	c	j	837.03	1	1000	1000	1	0
106	5	49	P	P	f	469.25	1	2	24	8	56	c	n	970.07	1	1000	100	0	0
106	5	50	N	N	d	1003.57	0	4	24	7	56	c	n	803.58	1	100	1000	1	0
106	5	51	P	P	f	619.69	1	3	24	9	56	c	n	918.43	1	1000	1000	1	0
106	5	52	P	P	f	453.16	1	8	24	2	56	i	n	686.37	1	1000	100	0	0
106	5	53	N	N	d	603.43	0	7	56	3	24	c	j	570.14	1	1000	1000	1	0
106	5	54	P	P	f	702.26	1	4	56	9	24	i	j	769.94	1	100	1000	1	0
106	5	55	P	P	f	836.6	1	3	56	9	24	i	j	1020.71	1	1000	100	0	0
106	5	56	N	N	d	617.63	0	4	56	9	24	i	n	770.32	1	1000	1000	1	0
106	5	57	P	P	f	669.66	1	3	24	7	56	c	n	953.1	1	100	100	1	0
106	5	58	P	P	f	519.3	1	2	56	7	24	i	j	652.73	1	1000	1000	0	0
106	5	59	P	P	f	536.41	1	8	56	4	24	c	j	953.47	1	1000	100	0	0
106	5	60	N	N	d	569.46	0	8	24	3	56	i	j	1036.59	1	1000	100	1	0
106	5	61	N	N	d	934.18	0	7	24	4	56	i	n	636.86	0	1000	1000	0	0
106	5	62	N	N	d	602.65	0	7	24	2	56	i	j	653.09	1	1000	100	0	1
106	5	63	P	P	f	686.67	1	3	56	9	24	i	j	869.84	1	100	100	1	0
106	5	64	N	N	d	803.4	0	4	56	7	24	i	n	636.1	1	100	100	1	0
106	5	65	P	P	f	686.38	1	2	56	7	24	i	j	652.77	1	1000	1000	1	0
106	6	1	N	N	d	569.64	0	3	24	8	56	c	n	586.37	1	1000	1000	-1	0
106	6	2	N	N	d	469.86	0	7	24	4	56	i	j	452.93	1	1000	1000	0	0
106	6	3	N	N	d	452.74	0	3	24	9	56	c	n	519.1	1	1000	1000	0	0
106	6	4	N	N	d	434.11	0	7	24	2	56	i	j	720.03	1	100	100	0	0
106	6	5	N	N	d	402.87	0	3	56	8	24	i	n	852.89	1	1000	100	0	0
106	6	6	P	P	f	786.59	1	7	56	2	24	c	j	668.42	1	1000	1000	1	0
106	6	7	P	P	f	535.55	1	7	24	3	56	i	n	767.63	1	100	100	0	0
106	6	8	N	N	d	670.1	0	7	24	2	56	i	j	786.84	1	100	100	1	0
106	6	9	P	P	d	503.17	1	7	56	4	24	c	j	1653.85	1	1000	100	1	0
106	6	10	P	P	f	602.86	1	8	24	2	56	i	n	886.97	1	1000	100	0	0
106	6	11	N	N	d	652.98	0	9	24	4	56	i	j	736.9	1	1000	1000	1	0
106	6	12	N	N	d	652.47	0	3	24	9	56	c	n	603.14	1	100	1000	0	0
106	6	13	P	P	f	702.68	1	4	56	8	24	i	j	853.31	1	100	100	1	0
106	6	14	P	P	f	602.93	1	2	24	7	56	c	n	570.4	1	100	1000	0	0
106	6	15	N	N	d	619.88	0	7	56	4	24	c	j	787.46	1	100	1000	1	0
106	6	16	P	P	f	669.98	1	9	24	2	56	i	n	1036.5	1	100	100	1	0
106	6	17	N	N	d	837.1	0	8	56	3	24	c	j	870.44	1	100	100	1	0
106	6	18	P	P	f	769.8	1	8	24	4	56	i	n	686.99	1	1000	1000	1	0
106	6	19	N	N	d	517.65	0	3	24	7	56	c	n	903.38	1	1000	100	1	0
106	6	20	N	N	d	785.74	0	4	56	9	24	i	n	936.4	1	100	1000	0	0
106	6	21	P	P	f	502.85	1	2	56	8	24	i	j	736.87	1	1000	100	1	0
106	6	22	N	N	d	619.62	0	4	56	9	24	i	n	737.63	1	100	100	1	0
106	6	23	N	N	d	886.72	0	2	56	9	24	i	n	703.07	1	100	100	0	0
106	6	24	N	N	d	836.0	0	7	56	3	24	c	j	1087.12	1	100	100	0	0
106	6	25	N	N	d	669.66	0	8	56	2	24	c	j	686.98	1	100	1000	0	0
106	6	26	N	N	d	719.72	0	8	56	3	24	c	j	719.26	1	1000	100	0	0
106	6	27	P	P	f	619.05	1	8	24	2	56	i	n	769.86	1	100	1000	1	0
106	6	28	N	N	d	502.84	0	4	56	8	24	i	n	769.38	1	1000	100	1	0
106	6	29	N	N	d	436.04	0	8	24	3	56	i	j	720.56	1	1000	100	0	0
106	6	30	N	N	d	519.01	0	4	24	9	56	c	n	853.28	1	100	100	0	0
106	6	31	N	N	d	603.11	0	7	56	2	24	c	j	653.49	1	1000	1000	0	0
106	6	32	P	P	f	702.63	1	8	24	4	56	i	n	1104.22	1	1000	100	1	0
106	6	33	P	P	f	986.59	1	7	56	2	24	c	j	953.45	1	100	1000	0	0
106	6	34	N	N	d	636.56	0	3	56	9	24	i	n	653.61	1	1000	1000	1	0
106	6	35	P	P	f	820.05	1	9	56	4	24	c	j	1137.29	1	100	1000	1	0
106	6	36	N	N	d	686.58	0	2	24	9	56	c	n	1037.67	1	100	100	1	0
106	6	37	P	P	f	786.71	1	3	24	9	56	c	n	1337.33	1	100	1000	1	0
106	6	38	N	N	d	753.37	0	8	56	2	24	c	j	586.78	1	1000	100	1	0
106	6	39	P	P	f	669.73	1	3	24	9	56	c	n	636.48	1	1000	100	1	0
106	6	40	P	P	f	670.03	1	9	56	2	24	c	j	636.66	1	1000	100	0	0
106	6	41	N	N	d	803.15	0	4	56	7	24	i	j	535.97	0	100	1000	1	0
106	6	42	P	P	f	702.78	1	3	56	9	24	i	j	502.95	1	1000	1000	1	1
106	6	43	N	N	d	769.7	0	9	56	4	24	c	j	486.71	1	1000	1000	1	0
106	6	44	P	P	f	636.05	1	3	24	9	56	c	n	786.62	1	1000	1000	1	0
106	6	45	P	P	f	737.33	1	2	56	7	24	i	j	569.28	1	1000	1000	0	0
106	6	46	P	P	f	653.03	1	4	56	8	24	i	j	536.48	1	100	1000	0	0
106	6	47	N	N	d	684.28	0	9	24	2	56	i	n	519.38	0	100	1000	1	0
106	6	48	N	N	d	1003.59	0	8	24	4	56	i	j	536.44	1	100	1000	0	1
106	6	49	N	N	d	650.79	0	3	24	7	56	c	n	836.45	1	1000	100	0	0
106	6	50	P	P	f	703.0	1	4	24	8	56	c	n	1102.99	1	100	100	1	0
106	6	51	P	P	f	686.63	1	9	24	3	56	i	n	753.0	1	100	1000	0	0
106	6	52	N	N	d	586.93	0	4	24	8	56	c	n	702.99	1	100	1000	1	0
106	6	53	N	N	d	853.22	0	3	56	7	24	i	n	1137.42	1	1000	1000	0	0
106	6	54	P	P	f	687.1	1	7	56	4	24	c	j	819.92	1	100	100	1	0
106	6	55	P	P	f	519.43	1	2	56	9	24	i	j	636.47	1	100	100	0	0
106	6	56	P	P	f	602.97	1	7	56	3	24	c	j	653.86	1	100	100	0	0
106	6	57	P	P	f	669.07	1	2	24	8	56	c	n	986.55	1	1000	100	0	0
106	6	58	P	P	f	920.08	1	4	56	7	24	i	j	770.32	1	1000	100	0	0
106	6	59	N	N	d	803.02	0	7	24	3	56	i	j	552.82	1	1000	100	1	0
106	6	60	P	P	f	736.67	1	2	56	7	24	i	j	802.84	1	100	1000	1	0
106	6	61	P	P	f	636.16	1	8	56	4	24	c	j	620.11	1	1000	1000	0	0
106	6	62	P	P	f	585.69	1	9	24	2	56	i	n	886.53	1	1000	1000	0	0
106	6	63	P	P	f	636.5	1	3	24	9	56	c	n	720.29	1	100	100	0	0
106	6	64	P	P	f	502.92	1	4	24	9	56	c	n	602.96	1	1000	1000	0	0
106	6	65	N	N	d	719.78	0	2	24	8	56	c	n	619.53	1	1000	1000	1	0
