subj	block	trial	task_cue	task	choice_resp	choiceRT	choice_acc	topnum	topsize	botnum	botsize	cong	task_resp	taskRT	task_acc	RSI	CSI	altRep	E1
111	1	1	?	P	f	3706.32	NA	7	24	4	56	i	n	1669.9	1	100	1000	-1	0
111	1	2	?	N	d	868.59	NA	2	24	9	56	c	n	1336.57	1	1000	100	0	0
111	1	3	?	P	f	636.02	NA	8	56	4	24	c	j	2020.83	1	1000	100	0	0
111	1	4	?	N	d	569.12	NA	7	24	2	56	i	j	936.55	1	1000	1000	0	0
111	1	5	?	P	f	2354.39	NA	3	56	7	24	i	j	1520.68	1	100	100	0	0
111	1	6	?	N	d	2437.94	NA	8	24	2	56	i	j	686.11	1	100	1000	0	0
111	1	7	?	P	f	534.88	NA	7	24	4	56	i	n	884.95	1	1000	100	0	0
111	1	8	?	N	d	1336.28	NA	9	24	2	56	i	j	986.15	1	100	100	0	0
111	1	9	?	P	f	1101.98	NA	7	24	4	56	i	n	736.27	1	100	1000	0	0
111	1	10	?	N	d	635.97	NA	3	24	8	56	c	n	852.78	1	1000	1000	0	0
111	1	11	?	P	f	1687.19	NA	7	24	2	56	i	n	1637.02	1	100	100	0	0
111	1	12	?	N	d	769.48	NA	4	56	9	24	i	n	2237.66	1	1000	1000	0	0
111	1	13	?	P	f	435.69	NA	3	24	8	56	c	n	1036.34	1	1000	1000	0	0
111	1	14	?	N	d	552.23	NA	8	24	4	56	i	j	835.09	1	1000	100	0	0
111	1	15	?	P	f	1168.26	NA	9	56	3	24	c	j	935.91	1	100	1000	0	0
111	1	16	?	N	d	451.87	NA	4	24	8	56	c	n	802.8	1	1000	1000	0	0
111	1	17	?	P	f	2154.4	NA	8	24	2	56	i	n	1453.67	1	100	100	0	0
111	1	18	?	N	d	919.49	NA	4	56	7	24	i	n	852.94	1	100	1000	0	0
111	1	19	?	P	f	1020.04	NA	3	24	8	56	c	n	986.18	1	100	100	0	0
111	1	20	?	N	d	786.8	NA	4	56	7	24	i	n	852.99	1	100	100	0	0
111	1	21	?	P	f	18.79	NA	2	24	7	56	c	n	1286.45	1	1000	100	0	0
111	1	22	?	N	d	635.3	NA	8	24	3	56	i	j	952.41	1	100	1000	0	0
111	1	23	?	P	f	817.98	NA	2	24	7	56	c	n	585.73	1	100	1000	0	0
111	1	24	?	N	d	35.22	NA	7	56	3	24	c	j	1570.17	1	1000	100	0	0
111	1	25	?	P	f	1102.36	NA	2	56	8	24	i	j	1952.82	1	1000	100	0	0
111	1	26	?	N	d	836.14	NA	8	56	3	24	c	j	936.35	1	100	100	0	0
111	1	27	?	P	f	585.41	NA	7	24	2	56	i	n	1370.06	1	100	1000	0	0
111	1	28	?	N	d	451.07	NA	4	24	7	56	c	n	1769.92	1	100	1000	0	0
111	1	29	?	P	f	2854.8	NA	2	24	8	56	c	n	1637.12	1	1000	100	0	0
111	1	30	?	N	d	952.69	NA	3	24	9	56	c	n	1269.8	1	100	1000	0	0
111	1	31	?	P	f	652.67	NA	2	56	9	24	i	j	1286.38	1	100	1000	0	0
111	1	32	?	N	d	151.73	NA	8	24	4	56	i	j	1219.66	1	1000	1000	0	0
111	1	33	?	P	f	1119.79	NA	2	24	9	56	c	n	1753.88	1	100	1000	0	0
111	1	34	?	N	d	669.14	NA	4	24	8	56	c	n	1303.11	1	100	100	0	0
111	1	35	?	P	f	118.73	NA	8	56	2	24	c	j	934.99	1	1000	1000	0	0
111	1	36	?	N	d	486.1	NA	8	24	3	56	i	j	819.43	1	1000	100	0	0
111	1	37	?	P	f	485.47	NA	4	56	7	24	i	j	1269.68	1	1000	1000	0	0
111	1	38	?	N	d	886.02	NA	7	24	2	56	i	j	1770.82	1	100	1000	0	0
111	1	39	?	P	f	1670.16	NA	8	24	3	56	i	n	1370.52	1	1000	1000	0	0
111	1	40	?	N	d	502.52	NA	2	24	8	56	c	n	769.2	1	1000	1000	0	0
111	1	41	?	P	f	518.86	NA	4	24	9	56	c	n	1235.72	1	1000	100	0	0
111	1	42	?	N	d	1987.06	NA	7	56	3	24	c	j	1069.64	1	100	100	0	0
111	1	43	?	P	f	1303.14	NA	9	56	4	24	c	j	1152.41	1	100	1000	0	0
111	1	44	?	N	d	85.6	NA	3	56	8	24	i	n	1920.59	1	1000	1000	0	0
111	1	45	?	N	d	85.23	NA	8	56	4	24	c	j	2720.77	1	1000	1000	0	0
111	1	46	?	P	f	702.91	NA	9	56	2	24	c	j	1202.51	1	1000	1000	0	0
111	1	47	?	P	f	2437.83	NA	4	24	8	56	c	n	2138.07	1	100	100	0	0
111	1	48	?	N	d	685.56	NA	3	56	7	24	i	n	1519.51	1	1000	1000	0	0
111	1	49	?	P	f	1586.85	NA	4	56	7	24	i	j	769.25	1	100	100	0	0
111	1	50	?	N	d	1203.1	NA	8	56	2	24	c	j	1553.39	1	100	1000	0	0
111	1	51	?	P	f	2954.98	NA	8	24	3	56	i	n	802.45	1	1000	100	0	0
111	1	52	?	N	d	619.52	NA	7	56	2	24	c	j	1169.61	1	1000	1000	0	0
111	1	53	?	P	f	685.71	NA	7	56	3	24	c	j	1219.66	1	1000	100	0	0
111	1	54	?	N	d	535.86	NA	8	24	4	56	i	j	819.49	1	1000	100	0	0
111	1	55	?	P	f	1203.4	NA	7	24	2	56	i	n	435.53	1	100	1000	0	0
111	1	56	?	N	d	568.69	NA	4	56	7	24	i	n	852.36	1	1000	100	0	0
111	1	57	?	P	f	1703.89	NA	7	56	3	24	c	j	868.56	1	100	100	0	0
111	1	58	?	N	d	1236.83	NA	9	56	2	24	c	j	869.55	1	100	100	0	0
111	1	59	?	P	f	1385.57	NA	9	24	3	56	i	n	1286.53	1	100	100	0	0
111	1	60	?	N	d	1503.22	NA	8	24	2	56	i	j	752.64	1	100	100	0	0
111	1	61	?	P	f	736.07	NA	8	24	3	56	i	n	736.1	1	1000	100	0	0
111	1	62	?	N	d	1270.16	NA	7	56	4	24	c	j	702.63	1	100	1000	0	0
111	1	63	?	P	f	352.45	NA	9	56	3	24	c	j	550.91	1	1000	100	0	0
111	1	64	?	N	d	1470.47	NA	2	24	7	56	c	n	1336.08	1	100	100	0	0
111	1	65	?	P	f	84.3	NA	3	56	8	24	i	j	1019.97	1	1000	1000	0	0
111	2	1	?	P	f	251.93	NA	9	56	4	24	c	j	919.16	1	1000	100	-1	0
111	2	2	?	N	d	318.8	NA	8	56	3	24	c	j	770.11	1	1000	100	0	0
111	2	3	?	P	f	352.4	NA	4	24	8	56	c	n	502.15	1	1000	1000	0	0
111	2	4	?	N	d	1469.66	NA	3	24	7	56	c	n	903.02	1	1000	1000	0	0
111	2	5	?	P	f	718.35	NA	8	24	2	56	i	n	651.19	1	100	100	0	0
111	2	6	?	N	d	218.76	NA	7	24	4	56	i	j	1135.32	1	1000	100	0	0
111	2	7	?	P	f	468.65	NA	2	24	9	56	c	n	1135.72	1	1000	100	0	0
111	2	8	?	N	d	217.45	NA	9	24	3	56	i	j	919.22	1	1000	100	0	0
111	2	9	?	P	f	752.38	NA	4	56	9	24	i	j	1336.69	1	100	100	0	0
111	2	10	?	N	d	85.44	NA	7	24	2	56	i	j	1085.36	1	1000	1000	0	0
111	2	11	?	P	f	852.68	NA	3	24	9	56	c	n	1253.38	1	100	100	0	0
111	2	12	?	N	d	820.36	NA	8	56	2	24	c	j	1002.84	1	100	100	0	0
111	2	13	?	P	f	717.99	NA	4	24	7	56	c	n	702.38	1	100	1000	0	0
111	2	14	?	N	d	569.05	NA	2	24	7	56	c	n	1953.88	1	1000	100	0	0
111	2	15	?	P	f	1270.06	NA	4	56	8	24	i	j	484.99	1	100	1000	0	0
111	2	16	?	N	d	536.02	NA	9	56	2	24	c	j	819.47	1	100	100	0	0
111	2	17	?	P	f	419.27	NA	4	24	7	56	c	n	1236.41	1	1000	100	0	0
111	2	18	?	N	d	18.35	NA	7	24	2	56	i	j	852.48	1	1000	1000	0	0
111	2	19	?	P	f	636.12	NA	8	56	4	24	c	j	1019.55	1	1000	1000	0	0
111	2	20	?	N	d	736.1	NA	2	56	7	24	i	n	1002.88	1	100	1000	0	0
111	2	21	?	P	f	1135.74	NA	3	56	8	24	i	j	836.06	1	100	1000	0	0
111	2	22	?	N	d	852.99	NA	8	24	2	56	i	j	1603.06	1	100	100	0	0
111	2	23	?	P	f	836.12	NA	4	56	8	24	i	j	2003.83	1	100	100	0	0
111	2	24	?	N	d	569.0	NA	2	56	9	24	i	n	902.89	1	100	100	0	0
111	2	25	?	P	f	169.11	NA	9	56	4	24	c	j	935.76	1	1000	100	0	0
111	2	26	?	N	d	735.52	NA	3	24	9	56	c	n	1703.79	1	100	100	0	0
111	2	27	?	P	f	1102.44	NA	9	24	2	56	i	n	1303.72	1	1000	1000	0	0
111	2	28	?	N	d	652.67	NA	3	56	7	24	i	n	736.38	1	100	100	0	0
111	2	29	?	P	f	1053.23	NA	4	56	7	24	i	j	785.98	1	100	100	0	0
111	2	30	?	N	d	617.6	NA	8	56	3	24	c	j	1086.18	1	1000	100	0	0
111	2	31	?	P	f	535.88	NA	8	56	4	24	c	j	452.09	1	1000	1000	0	0
111	2	32	?	N	d	885.38	NA	8	56	3	24	c	j	702.89	1	100	1000	0	0
111	2	33	?	P	f	285.55	NA	4	24	9	56	c	n	451.34	1	1000	1000	0	0
111	2	34	?	N	d	518.97	NA	7	24	3	56	i	j	769.4	1	1000	1000	0	0
111	2	35	?	P	f	519.05	NA	4	56	8	24	i	j	953.02	1	1000	1000	0	0
111	2	36	?	N	d	202.19	NA	3	24	8	56	c	n	984.86	1	1000	1000	0	0
111	2	37	?	P	f	769.01	NA	8	24	4	56	i	n	1369.65	1	100	1000	0	0
111	2	38	?	N	d	652.77	NA	2	24	9	56	c	n	1102.86	1	100	100	0	0
111	2	39	?	P	f	719.18	NA	4	56	9	24	i	j	1303.24	1	100	1000	0	0
111	2	40	?	N	d	135.23	NA	8	56	2	24	c	j	869.49	1	1000	1000	0	0
111	2	41	?	P	f	1136.56	NA	7	56	3	24	c	j	1068.34	1	100	1000	0	0
111	2	42	?	N	d	585.77	NA	2	56	7	24	i	n	1053.18	1	100	100	0	0
111	2	43	?	P	f	118.83	NA	9	24	3	56	i	n	1053.11	1	1000	100	0	0
111	2	44	?	N	d	685.83	NA	2	24	9	56	c	n	602.13	1	100	1000	0	0
111	2	45	?	P	f	801.96	NA	3	56	7	24	i	j	452.37	1	100	1000	0	0
111	2	46	?	N	d	68.6	NA	4	24	8	56	c	n	1002.48	1	1000	100	0	0
111	2	47	?	P	f	335.38	NA	8	24	3	56	i	n	1503.54	1	1000	100	0	0
111	2	48	?	N	d	18.59	NA	2	56	8	24	i	n	1452.54	1	1000	100	0	0
111	2	49	?	P	f	235.36	NA	8	24	4	56	i	n	703.02	1	1000	1000	0	0
111	2	50	?	N	d	784.83	NA	7	56	2	24	c	j	836.02	1	100	100	0	0
111	2	51	?	P	f	483.88	NA	9	56	4	24	c	j	1887.79	1	1000	1000	0	0
111	2	52	?	N	d	401.83	NA	3	56	8	24	i	n	702.52	1	1000	1000	0	0
111	2	53	?	P	f	301.24	NA	4	56	9	24	i	j	1453.41	1	1000	100	0	0
111	2	54	?	N	d	569.19	NA	3	56	7	24	i	n	1887.76	1	1000	1000	0	0
111	2	55	?	P	f	168.97	NA	2	56	7	24	i	j	935.65	1	1000	100	0	0
111	2	56	?	N	d	619.44	NA	7	56	3	24	c	j	2170.95	1	100	1000	0	0
111	2	57	?	P	f	301.3	NA	9	56	4	24	c	j	1719.2	1	1000	100	0	0
111	2	58	?	N	d	385.63	NA	2	56	8	24	i	n	2004.42	1	1000	100	0	0
111	2	59	?	P	f	619.89	NA	4	24	9	56	c	n	2554.62	1	100	1000	0	0
111	2	60	?	N	d	551.38	NA	3	24	9	56	c	n	1220.28	1	100	100	0	0
111	2	61	?	P	f	618.9	NA	8	24	4	56	i	n	802.47	1	100	1000	0	0
111	2	62	?	N	d	519.03	NA	7	56	3	24	c	j	1169.68	1	100	1000	0	0
111	2	63	?	P	f	635.53	NA	2	24	8	56	c	n	2037.33	1	100	1000	0	0
111	2	64	?	N	d	802.43	NA	9	56	4	24	c	j	1687.03	1	100	100	0	0
111	2	65	?	P	f	552.59	NA	8	24	3	56	i	n	1970.83	1	100	1000	0	0
111	3	1	?	P	f	135.36	NA	3	56	8	24	i	j	1887.23	1	1000	100	-1	0
111	3	2	?	N	d	452.04	NA	7	56	4	24	c	j	1352.24	1	100	100	0	0
111	3	3	?	P	f	1486.78	NA	7	56	3	24	c	j	869.71	1	1000	1000	0	0
111	3	4	?	N	d	485.53	NA	8	24	4	56	i	j	651.63	1	1000	1000	0	0
111	3	5	?	P	f	386.31	NA	2	56	9	24	i	j	1335.99	1	1000	1000	0	0
111	3	6	?	N	d	285.33	NA	3	24	8	56	c	n	752.79	1	1000	1000	0	0
111	3	7	?	P	f	302.01	NA	4	56	8	24	i	j	1436.1	1	1000	1000	0	0
111	3	8	?	N	d	1503.7	NA	3	56	7	24	i	n	1570.13	1	100	1000	0	0
111	3	9	?	P	f	419.09	NA	7	24	4	56	i	n	1102.73	1	1000	100	0	0
111	3	10	?	N	d	535.04	NA	3	24	9	56	c	n	936.01	1	100	1000	0	0
111	3	11	?	P	f	685.85	NA	2	24	8	56	c	n	1085.9	1	100	100	0	0
111	3	12	?	N	d	336.12	NA	8	24	4	56	i	j	1002.11	1	1000	100	0	0
111	3	13	?	P	f	719.47	NA	2	56	9	24	i	j	769.41	1	1000	100	0	0
111	3	14	?	N	d	1537.02	NA	9	24	4	56	i	j	1052.96	1	100	100	0	0
111	3	15	?	P	f	352.12	NA	2	56	8	24	i	j	885.68	1	1000	100	0	0
111	3	16	?	N	d	1453.47	NA	3	24	8	56	c	n	952.85	1	1000	100	0	0
111	3	17	?	P	f	1336.66	NA	8	56	2	24	c	j	986.19	1	100	1000	0	0
111	3	18	?	N	d	2137.24	NA	3	56	7	24	i	n	1752.45	1	100	100	0	0
111	3	19	?	P	f	402.16	NA	9	56	4	24	c	j	918.33	1	1000	100	0	0
111	3	20	?	N	d	1953.34	NA	7	56	3	24	c	j	652.62	1	100	100	0	0
111	3	21	?	P	f	1920.46	NA	2	56	9	24	i	j	1670.7	1	100	100	0	0
111	3	22	?	N	d	335.65	NA	4	24	7	56	c	n	1269.55	1	1000	100	0	0
111	3	23	?	P	f	350.77	NA	9	56	2	24	c	j	1152.97	1	1000	1000	0	0
111	3	24	?	N	d	852.68	NA	3	24	7	56	c	n	785.43	1	100	1000	0	0
111	3	25	?	P	f	1720.55	NA	2	56	9	24	i	j	970.43	1	100	100	0	0
111	3	26	?	N	d	1987.7	NA	4	56	7	24	i	n	1403.65	1	100	1000	0	0
111	3	27	?	P	f	1854.03	NA	2	24	8	56	c	n	1370.35	1	100	1000	0	0
111	3	28	?	N	d	2587.14	NA	7	24	3	56	i	j	869.6	1	100	1000	0	0
111	3	29	?	P	f	285.59	NA	2	56	8	24	i	j	1186.57	1	1000	1000	0	0
111	3	30	?	N	d	301.78	NA	9	24	3	56	i	j	1336.77	1	1000	100	0	0
111	3	31	?	P	f	1853.13	NA	4	56	8	24	i	j	1102.42	1	100	1000	0	0
111	3	32	?	N	d	3122.43	NA	8	24	2	56	i	j	885.91	1	100	1000	0	0
111	3	33	?	P	f	2188.45	NA	8	24	4	56	i	n	1386.91	1	100	100	0	0
111	3	34	?	N	d	1369.74	NA	2	56	8	24	i	j	902.67	0	1000	100	0	0
111	3	35	?	P	f	1053.06	NA	3	24	9	56	c	n	986.23	1	100	1000	0	1
111	3	36	?	N	d	1887.9	NA	4	56	9	24	i	n	1236.54	1	100	100	0	0
111	3	37	?	P	f	3055.57	NA	7	24	2	56	i	n	1387.07	1	1000	100	0	0
111	3	38	?	N	d	318.96	NA	3	24	8	56	c	n	1203.01	1	1000	100	0	0
111	3	39	?	P	f	285.28	NA	9	24	2	56	i	n	1169.98	1	1000	1000	0	0
111	3	40	?	N	d	35.47	NA	4	24	8	56	c	n	786.04	1	1000	1000	0	0
111	3	41	?	P	f	268.95	NA	7	56	2	24	c	j	919.92	1	1000	100	0	0
111	3	42	?	N	d	1286.93	NA	9	56	3	24	c	j	852.49	1	1000	1000	0	0
111	3	43	?	P	f	585.52	NA	2	56	9	24	i	j	802.67	1	100	1000	0	0
111	3	44	?	N	d	700.72	NA	3	56	9	24	i	n	1169.6	1	100	100	0	0
111	3	45	?	P	f	769.45	NA	2	24	9	56	c	n	1119.65	1	1000	1000	0	0
111	3	46	?	N	d	51.08	NA	4	56	9	24	i	n	835.88	1	1000	100	0	0
111	3	47	?	P	f	553.3	NA	8	24	3	56	i	n	535.65	1	100	1000	0	0
111	3	48	?	N	d	19.03	NA	2	56	9	24	i	n	1086.48	1	1000	1000	0	0
111	3	49	?	P	f	319.31	NA	9	56	3	24	c	j	1036.04	1	1000	100	0	0
111	3	50	?	N	d	801.73	NA	4	24	8	56	c	n	1036.16	1	100	100	0	0
111	3	51	?	P	f	402.35	NA	2	24	8	56	c	n	886.5	1	1000	1000	0	0
111	3	52	?	N	d	252.01	NA	4	56	7	24	i	n	1169.69	1	1000	1000	0	0
111	3	53	?	P	f	1269.99	NA	7	56	3	24	c	j	918.85	1	100	1000	0	0
111	3	54	?	N	d	1303.26	NA	7	56	2	24	c	j	619.29	1	100	1000	0	0
111	3	55	?	P	f	1069.66	NA	7	56	3	24	c	j	819.33	1	100	100	0	0
111	3	56	?	N	d	285.7	NA	8	56	4	24	c	j	569.25	1	1000	1000	0	0
111	3	57	?	P	f	818.96	NA	7	56	3	24	c	j	852.12	1	100	100	0	0
111	3	58	?	N	d	869.46	NA	2	24	7	56	c	n	702.48	1	100	100	0	0
111	3	59	?	P	f	1403.43	NA	3	24	7	56	c	n	1002.32	1	1000	100	0	0
111	3	60	?	N	d	535.87	NA	7	56	4	24	c	j	685.42	1	100	1000	0	0
111	3	61	?	P	f	602.81	NA	9	24	2	56	i	n	1003.18	1	100	1000	0	0
111	3	62	?	N	d	1053.2	NA	8	56	4	24	c	j	753.11	1	1000	100	0	0
111	3	63	?	P	f	719.41	NA	3	56	8	24	i	j	1036.38	1	100	100	0	0
111	3	64	?	N	d	101.63	NA	4	56	7	24	i	n	1053.12	1	1000	1000	0	0
111	3	65	?	P	f	618.94	NA	3	24	9	56	c	n	1153.12	1	100	100	0	0
111	4	1	?	P	f	669.35	NA	3	56	8	24	i	j	2003.96	1	100	100	-1	0
111	4	2	?	N	d	502.29	NA	7	56	4	24	c	j	1403.03	1	1000	1000	0	0
111	4	3	?	P	f	586.0	NA	8	56	2	24	c	j	1086.17	1	1000	1000	0	0
111	4	4	?	N	d	585.86	NA	7	56	3	24	c	j	635.98	1	100	100	0	0
111	4	5	?	P	f	818.97	NA	2	24	8	56	c	n	1003.26	1	1000	100	0	0
111	4	6	?	N	d	1019.5	NA	9	24	3	56	i	j	602.48	1	1000	1000	0	0
111	4	7	?	P	f	752.37	NA	7	56	4	24	c	j	769.56	1	100	100	0	0
111	4	8	?	N	d	969.48	NA	2	24	9	56	c	n	617.76	1	100	100	0	0
111	4	9	?	P	f	68.55	NA	3	24	8	56	c	n	1169.66	1	1000	100	0	0
111	4	10	?	N	d	1586.47	NA	4	56	9	24	i	n	952.52	1	1000	100	0	0
111	4	11	?	P	f	1153.14	NA	9	56	3	24	c	j	952.72	1	1000	100	0	0
111	4	12	?	N	d	785.6	NA	8	56	4	24	c	j	786.18	1	100	100	0	0
111	4	13	?	P	f	635.88	NA	3	56	9	24	i	j	502.03	1	100	1000	0	0
111	4	14	?	N	d	585.43	NA	4	24	8	56	c	n	684.06	1	100	1000	0	0
111	4	15	?	P	f	534.54	NA	3	24	8	56	c	n	1052.92	1	100	1000	0	0
111	4	16	?	N	d	551.07	NA	8	24	2	56	i	j	1286.46	1	100	100	0	0
111	4	17	?	P	f	535.8	NA	4	56	7	24	i	j	802.6	1	1000	100	0	0
111	4	18	?	N	d	652.69	NA	9	24	2	56	i	j	619.19	1	100	1000	0	0
111	4	19	?	P	f	235.46	NA	7	56	3	24	c	j	935.88	1	1000	100	0	0
111	4	20	?	N	d	135.64	NA	4	24	7	56	c	n	935.66	1	1000	1000	0	0
111	4	21	?	P	f	68.61	NA	2	24	9	56	c	n	651.51	1	1000	100	0	0
111	4	22	?	N	d	52.08	NA	3	56	7	24	i	n	1219.42	1	1000	1000	0	0
111	4	23	?	P	f	352.0	NA	7	56	4	24	c	j	802.3	1	1000	100	0	0
111	4	24	?	N	d	402.3	NA	9	56	3	24	c	j	819.66	1	1000	1000	0	0
111	4	25	?	P	f	552.01	NA	7	24	2	56	i	n	936.81	1	100	1000	0	0
111	4	26	?	N	d	986.1	NA	3	56	8	24	i	n	1070.09	1	100	100	0	0
111	4	27	?	P	f	586.02	NA	4	24	7	56	c	n	785.8	1	100	100	0	0
111	4	28	?	N	d	502.48	NA	8	56	2	24	c	j	568.23	1	100	100	0	0
111	4	29	?	P	f	501.58	NA	9	56	3	24	c	j	452.0	1	100	1000	0	0
111	4	30	?	N	d	418.1	NA	2	56	8	24	i	n	818.68	1	100	100	0	0
111	4	31	?	P	f	468.7	NA	3	24	7	56	c	n	986.26	1	100	100	0	0
111	4	32	?	N	d	235.6	NA	8	24	2	56	i	j	1670.5	1	1000	1000	0	0
111	4	33	?	P	f	519.51	NA	3	56	8	24	i	n	1502.81	0	100	100	0	0
111	4	34	?	N	d	1269.71	NA	8	56	4	24	c	j	669.32	1	1000	1000	0	1
111	4	35	?	P	f	402.45	NA	3	56	8	24	i	j	1303.49	1	1000	100	0	0
111	4	36	?	N	d	318.71	NA	9	24	2	56	i	j	1436.7	1	1000	100	0	0
111	4	37	?	P	f	669.14	NA	4	56	9	24	i	j	735.88	1	100	1000	0	0
111	4	38	?	N	d	519.06	NA	3	56	8	24	i	n	685.88	1	100	100	0	0
111	4	39	?	P	f	535.6	NA	7	24	4	56	i	n	1003.26	1	100	1000	0	0
111	4	40	?	N	d	1069.06	NA	3	24	8	56	c	n	902.71	1	1000	1000	0	0
111	4	41	?	P	f	752.89	NA	8	56	2	24	c	j	451.73	1	100	1000	0	0
111	4	42	?	N	d	1587.19	NA	4	24	9	56	c	n	835.9	1	100	1000	0	0
111	4	43	?	P	f	384.58	NA	9	24	2	56	i	n	1153.01	1	1000	1000	0	0
111	4	44	?	N	d	1503.55	NA	3	56	7	24	i	n	1970.41	1	100	100	0	0
111	4	45	?	P	f	1502.58	NA	2	24	7	56	c	n	786.09	1	100	100	0	0
111	4	46	?	N	d	285.88	NA	4	24	7	56	c	n	868.71	1	1000	1000	0	0
111	4	47	?	P	f	936.09	NA	3	56	9	24	i	j	868.17	1	100	100	0	0
111	4	48	?	N	d	318.66	NA	8	24	2	56	i	j	953.4	1	1000	1000	0	0
111	4	49	?	P	f	35.3	NA	9	24	3	56	i	n	1469.33	1	1000	100	0	0
111	4	50	?	N	d	752.48	NA	8	24	2	56	i	j	1386.49	1	1000	100	0	0
111	4	51	?	P	f	519.26	NA	4	56	7	24	i	j	1103.2	1	100	100	0	0
111	4	52	?	N	d	552.68	NA	7	56	2	24	c	j	919.26	1	1000	100	0	0
111	4	53	?	P	f	1903.85	NA	4	56	8	24	i	j	818.93	1	100	1000	0	0
111	4	54	?	N	d	735.96	NA	8	56	2	24	c	j	1503.54	1	100	1000	0	0
111	4	55	?	P	f	285.13	NA	4	56	8	24	i	j	552.5	1	1000	1000	0	0
111	4	56	?	N	d	869.38	NA	3	24	7	56	c	n	852.81	1	1000	100	0	0
111	4	57	?	P	f	235.6	NA	8	24	2	56	i	n	1303.19	1	1000	100	0	0
111	4	58	?	N	d	285.77	NA	4	24	9	56	c	n	719.29	1	1000	1000	0	0
111	4	59	?	P	f	1469.95	NA	9	24	2	56	i	n	1270.13	1	100	1000	0	0
111	4	60	?	N	d	602.35	NA	3	56	7	24	i	n	1336.11	1	100	1000	0	0
111	4	61	?	P	f	35.48	NA	9	24	2	56	i	n	1286.27	1	1000	100	0	0
111	4	62	?	N	d	469.36	NA	8	56	4	24	c	j	1636.8	1	100	1000	0	0
111	4	63	?	P	f	518.99	NA	2	24	8	56	c	n	535.8	1	100	1000	0	0
111	4	64	?	N	d	952.88	NA	3	56	9	24	i	n	584.55	1	1000	1000	0	0
111	4	65	?	P	f	85.17	NA	8	24	4	56	i	n	1052.87	1	1000	1000	0	0
111	5	1	?	P	f	602.1	NA	7	24	3	56	i	n	1437.56	1	100	100	-1	0
111	5	2	?	N	d	1135.22	NA	9	24	4	56	i	j	1670.4	1	100	1000	0	0
111	5	3	?	P	f	168.74	NA	3	56	9	24	i	j	919.47	1	1000	100	0	0
111	5	4	?	N	d	434.7	NA	2	56	9	24	i	n	1036.28	1	100	1000	0	0
111	5	5	?	P	f	435.44	NA	7	24	3	56	i	n	952.67	1	100	1000	0	0
111	5	6	?	N	d	385.22	NA	9	24	2	56	i	j	752.91	1	100	100	0	0
111	5	7	?	P	f	268.39	NA	9	56	3	24	c	j	368.03	1	1000	1000	0	0
111	5	8	?	N	d	1287.02	NA	4	56	9	24	i	n	652.05	1	1000	100	0	0
111	5	9	?	P	f	535.81	NA	3	24	8	56	c	n	852.81	1	1000	100	0	0
111	5	10	?	N	d	602.39	NA	2	24	9	56	c	n	552.98	1	100	100	0	0
111	5	11	?	P	f	318.86	NA	8	24	4	56	i	n	435.47	1	1000	1000	0	0
111	5	12	?	N	d	502.47	NA	2	56	9	24	i	j	585.81	0	100	100	0	0
111	5	13	?	P	f	684.16	NA	9	24	3	56	i	n	418.71	1	100	1000	0	1
111	5	14	?	N	d	535.75	NA	8	56	4	24	c	j	853.12	1	100	100	0	0
111	5	15	?	P	f	852.46	NA	2	56	8	24	i	j	1136.83	1	100	100	0	0
111	5	16	?	N	d	402.27	NA	7	56	4	24	c	j	552.32	1	100	1000	0	0
111	5	17	?	P	f	252.24	NA	9	56	3	24	c	j	535.97	1	1000	1000	0	0
111	5	18	?	N	d	550.96	NA	7	56	2	24	c	j	836.02	1	100	1000	0	0
111	5	19	?	P	f	517.55	NA	8	24	4	56	i	n	1019.65	1	1000	100	0	0
111	5	20	?	N	d	736.1	NA	8	56	3	24	c	j	735.89	1	100	1000	0	0
111	5	21	?	P	f	452.41	NA	2	56	7	24	i	j	936.12	1	1000	1000	0	0
111	5	22	?	N	d	452.11	NA	3	24	9	56	c	n	435.52	1	100	1000	0	0
111	5	23	?	P	f	302.03	NA	8	56	2	24	c	j	836.1	1	1000	1000	0	0
111	5	24	?	N	d	435.71	NA	4	24	7	56	c	n	652.69	1	100	1000	0	0
111	5	25	?	P	f	302.11	NA	2	24	9	56	c	n	985.68	1	1000	100	0	0
111	5	26	?	N	d	619.19	NA	7	56	4	24	c	j	635.95	1	100	100	0	0
111	5	27	?	P	f	551.95	NA	7	56	2	24	c	j	585.87	1	100	100	0	0
111	5	28	?	N	d	735.24	NA	7	24	4	56	i	j	702.51	1	100	1000	0	0
111	5	29	?	P	f	285.68	NA	3	56	7	24	i	j	585.31	1	1000	100	0	0
111	5	30	?	N	d	602.49	NA	9	24	4	56	i	j	719.29	1	100	1000	0	0
111	5	31	?	P	f	267.22	NA	2	24	8	56	c	n	502.75	1	1000	100	0	0
111	5	32	?	N	d	1.72	NA	8	56	4	24	c	j	552.42	1	1000	100	0	0
111	5	33	?	P	f	769.29	NA	2	24	8	56	c	n	835.29	1	100	100	0	0
111	5	34	?	N	d	1502.85	NA	8	24	3	56	i	j	719.3	1	1000	100	0	0
111	5	35	?	P	f	669.75	NA	4	24	7	56	c	n	418.28	1	100	1000	0	0
111	5	36	?	N	d	285.51	NA	8	24	3	56	i	j	752.22	1	1000	100	0	0
111	5	37	?	P	f	1203.03	NA	4	56	8	24	i	j	418.88	1	100	1000	0	0
111	5	38	?	N	d	269.22	NA	7	24	2	56	i	j	553.3	1	1000	1000	0	0
111	5	39	?	P	f	51.8	NA	7	24	4	56	i	n	1003.03	1	1000	100	0	0
111	5	40	?	N	d	135.27	NA	2	56	9	24	i	n	1152.37	1	1000	100	0	0
111	5	41	?	P	f	518.95	NA	4	24	9	56	c	n	1203.02	1	100	100	0	0
111	5	42	?	N	d	402.38	NA	3	24	8	56	c	n	668.75	1	1000	1000	0	0
111	5	43	?	P	f	485.69	NA	7	24	4	56	i	n	802.32	1	100	100	0	0
111	5	44	?	N	d	168.37	NA	2	24	9	56	c	n	685.88	1	1000	1000	0	0
111	5	45	?	P	f	502.36	NA	7	56	4	24	c	j	452.33	1	1000	1000	0	0
111	5	46	?	N	d	302.27	NA	9	56	3	24	c	j	1336.63	1	1000	100	0	0
111	5	47	?	P	f	534.87	NA	2	24	8	56	c	n	552.52	1	100	100	0	0
111	5	48	?	N	d	202.34	NA	7	24	4	56	i	j	552.28	1	1000	1000	0	0
111	5	49	?	P	f	585.73	NA	7	24	3	56	i	n	685.76	1	100	100	0	0
111	5	50	?	N	d	652.49	NA	9	56	4	24	c	j	735.96	1	100	100	0	0
111	5	51	?	P	f	301.7	NA	7	24	3	56	i	n	685.83	1	1000	1000	0	0
111	5	52	?	N	d	919.69	NA	2	24	9	56	c	n	519.48	1	1000	1000	0	0
111	5	53	?	P	f	1286.52	NA	4	56	9	24	i	j	1403.21	1	100	100	0	0
111	5	54	?	N	d	769.24	NA	8	56	2	24	c	j	535.68	1	100	1000	0	0
111	5	55	?	P	f	385.63	NA	8	24	3	56	i	n	1253.82	1	1000	1000	0	0
111	5	56	?	N	d	617.65	NA	4	24	8	56	c	n	669.3	1	100	1000	0	0
111	5	57	?	P	f	352.32	NA	9	24	3	56	i	n	719.33	1	1000	1000	0	0
111	5	58	?	N	d	418.95	NA	4	24	7	56	c	n	785.89	1	1000	100	0	0
111	5	59	?	P	f	485.76	NA	3	24	8	56	c	n	702.93	1	1000	1000	0	0
111	5	60	?	N	d	468.87	NA	4	56	7	24	i	n	785.26	1	100	1000	0	0
111	5	61	?	P	f	268.5	NA	3	56	7	24	i	j	519.32	1	1000	1000	0	0
111	5	62	?	N	d	585.69	NA	4	56	9	24	i	n	819.39	1	100	100	0	0
111	5	63	?	P	f	485.79	NA	3	56	7	24	i	j	602.38	1	100	100	0	0
111	5	64	?	N	d	519.19	NA	8	56	4	24	c	j	635.74	1	1000	100	0	0
111	5	65	?	P	f	268.28	NA	8	56	3	24	c	j	686.18	1	1000	100	0	0
111	6	1	?	P	f	1753.91	NA	9	56	4	24	c	j	618.63	1	1000	100	-1	0
111	6	2	?	N	d	1236.46	NA	9	24	2	56	i	j	802.89	1	100	100	0	0
111	6	3	?	P	f	484.71	NA	7	24	3	56	i	n	635.37	1	100	100	0	0
111	6	4	?	N	d	402.28	NA	8	24	4	56	i	n	569.18	0	1000	100	0	0
111	6	5	?	P	f	902.95	NA	3	24	7	56	c	n	1102.76	1	100	100	0	1
111	6	6	?	N	d	318.0	NA	2	56	7	24	i	n	669.57	1	1000	100	0	0
111	6	7	?	P	f	268.6	NA	9	24	4	56	i	n	635.79	1	1000	1000	0	0
111	6	8	?	N	d	301.7	NA	3	24	9	56	c	n	635.92	1	1000	1000	0	0
111	6	9	?	P	f	619.51	NA	8	24	2	56	i	n	886.29	1	100	1000	0	0
111	6	10	?	N	d	352.17	NA	3	24	8	56	c	n	1103.06	1	1000	1000	0	0
111	6	11	?	P	f	1019.7	NA	9	24	2	56	i	n	1253.24	1	100	1000	0	0
111	6	12	?	N	d	1270.0	NA	9	24	4	56	i	j	684.36	1	100	1000	0	0
111	6	13	?	P	f	84.44	NA	8	24	3	56	i	n	1086.23	1	1000	100	0	0
111	6	14	?	N	d	267.79	NA	2	56	7	24	i	n	1119.75	1	1000	1000	0	0
111	6	15	?	P	f	552.48	NA	4	56	8	24	i	j	1003.18	1	100	1000	0	0
111	6	16	?	N	d	169.06	NA	7	24	3	56	i	j	1720.4	1	1000	100	0	0
111	6	17	?	P	f	636.13	NA	7	56	2	24	c	j	986.35	1	100	100	0	0
111	6	18	?	N	d	535.46	NA	8	56	3	24	c	j	969.35	1	100	100	0	0
111	6	19	?	P	f	218.84	NA	4	24	9	56	c	n	517.88	1	1000	100	0	0
111	6	20	?	N	d	352.0	NA	3	56	7	24	i	n	700.54	1	1000	100	0	0
111	6	21	?	P	f	568.59	NA	2	56	7	24	i	j	752.88	1	100	100	0	0
111	6	22	?	N	d	150.89	NA	7	56	3	24	c	j	518.9	1	1000	1000	0	0
111	6	23	?	P	f	101.84	NA	4	56	9	24	i	j	552.26	1	1000	100	0	0
111	6	24	?	N	d	285.45	NA	3	24	8	56	c	n	402.18	1	1000	1000	0	0
111	6	25	?	P	f	618.16	NA	4	56	9	24	i	j	1003.06	1	100	100	0	0
111	6	26	?	N	d	702.9	NA	7	24	2	56	i	j	851.29	1	100	100	0	0
111	6	27	?	P	f	669.59	NA	3	24	8	56	c	n	569.43	1	100	1000	0	0
111	6	28	?	N	d	852.97	NA	7	24	4	56	i	j	619.39	1	1000	1000	0	0
111	6	29	?	P	f	1019.75	NA	9	56	2	24	c	j	585.68	1	100	1000	0	0
111	6	30	?	N	d	135.27	NA	3	24	9	56	c	n	836.3	1	1000	100	0	0
111	6	31	?	P	f	1086.54	NA	9	56	2	24	c	j	752.07	1	100	100	0	0
111	6	32	?	N	d	301.57	NA	9	56	3	24	c	j	568.75	1	1000	100	0	0
111	6	33	?	P	f	302.43	NA	4	56	8	24	i	j	518.82	1	1000	1000	0	0
111	6	34	?	N	d	718.66	NA	8	24	3	56	i	j	535.84	1	100	1000	0	0
111	6	35	?	P	f	401.86	NA	9	24	4	56	i	n	652.5	1	1000	100	0	0
111	6	36	?	N	d	752.31	NA	2	24	9	56	c	n	1286.39	1	100	100	0	0
111	6	37	?	P	f	652.42	NA	3	56	8	24	i	j	418.72	1	100	1000	0	0
111	6	38	?	N	d	519.7	NA	4	24	9	56	c	n	919.77	1	100	1000	0	0
111	6	39	?	P	f	435.61	NA	9	24	2	56	i	n	1069.51	1	100	1000	0	0
111	6	40	?	N	d	519.27	NA	9	24	4	56	i	j	569.24	1	1000	1000	0	0
111	6	41	?	P	f	485.27	NA	8	24	3	56	i	n	602.43	1	100	1000	0	0
111	6	42	?	N	d	301.66	NA	2	56	8	24	i	j	852.92	0	1000	1000	0	0
111	6	43	?	P	f	1086.59	NA	3	24	9	56	c	n	1186.78	1	1000	100	0	1
111	6	44	?	N	d	418.77	NA	2	24	7	56	c	n	852.21	1	1000	1000	0	0
111	6	45	?	P	f	969.47	NA	4	24	7	56	c	n	617.65	1	100	1000	0	0
111	6	46	?	N	d	1335.17	NA	8	56	2	24	c	j	501.67	1	100	1000	0	0
111	6	47	?	P	f	569.11	NA	3	24	7	56	c	n	536.24	1	100	1000	0	0
111	6	48	?	N	d	584.43	NA	7	56	4	24	c	j	786.49	1	100	100	0	0
111	6	49	?	P	f	318.67	NA	9	56	2	24	c	j	535.81	1	1000	100	0	0
111	6	50	?	N	d	868.11	NA	9	56	4	24	c	j	502.54	1	100	1000	0	0
111	6	51	?	N	d	802.88	NA	3	24	9	56	c	n	885.57	1	100	100	0	0
111	6	52	?	P	f	535.83	NA	7	56	2	24	c	j	485.68	1	100	1000	0	0
111	6	53	?	P	f	335.86	NA	8	24	3	56	i	n	736.17	1	1000	1000	0	0
111	6	54	?	P	f	402.19	NA	2	56	7	24	i	j	651.39	1	1000	100	0	0
111	6	55	?	P	f	619.09	NA	3	24	8	56	c	j	652.7	0	1000	100	0	0
111	6	56	?	P	f	568.97	NA	9	56	2	24	c	j	735.84	1	1000	1000	0	1
111	6	57	?	N	d	2052.85	NA	4	56	7	24	i	n	685.84	1	100	100	0	0
111	6	58	?	N	d	769.31	NA	2	24	8	56	c	n	736.17	1	100	100	0	0
111	6	59	?	N	d	302.0	NA	8	56	3	24	c	j	586.09	1	1000	1000	0	0
111	6	60	?	N	d	817.8	NA	2	56	8	24	i	n	635.77	1	100	100	0	0
111	6	61	?	N	d	452.39	NA	8	56	4	24	c	j	602.37	1	1000	100	0	0
111	6	62	?	N	d	52.32	NA	7	56	3	24	c	j	635.74	1	1000	100	0	0
111	6	63	?	N	d	285.51	NA	8	24	4	56	i	j	602.5	1	1000	1000	0	0
111	6	64	?	N	d	1904.06	NA	3	56	7	24	i	n	635.8	1	100	100	0	0
111	6	65	?	N	d	418.79	NA	7	56	2	24	c	j	552.22	1	1000	1000	0	0
