subj	block	trial	task_cue	task	choice_resp	choiceRT	choice_acc	topnum	topsize	botnum	botsize	cong	task_resp	taskRT	task_acc	RSI	CSI	altRep	E1
117	1	1	?	P	f	1835.55	NA	7	24	4	56	i	n	3072.83	1	1000	100	-1	0
117	1	2	?	N	d	3072.02	NA	7	24	3	56	i	j	1721.2	1	100	1000	0	0
117	1	3	?	N	d	870.1	NA	7	24	2	56	i	j	6025.6	1	1000	100	0	0
117	1	4	?	N	d	1370.13	NA	4	24	7	56	c	n	4540.41	1	100	100	0	0
117	1	5	?	P	f	804.07	NA	2	56	8	24	i	j	2102.37	1	100	100	0	0
117	1	6	?	P	f	1837.87	NA	3	24	7	56	c	n	717.57	1	100	1000	0	0
117	1	7	?	N	d	1136.57	NA	4	56	7	24	i	j	3823.83	0	100	100	0	0
117	1	8	?	N	d	3872.72	NA	7	56	2	24	c	j	2171.28	1	100	100	0	1
117	1	9	?	P	f	919.25	NA	8	56	4	24	c	j	3172.61	1	1000	1000	0	0
117	1	10	?	P	f	1070.48	NA	2	56	8	24	i	j	1054.0	1	100	100	0	0
117	1	11	?	N	d	585.92	NA	9	24	3	56	i	j	1286.29	1	1000	1000	0	0
117	1	12	?	N	d	3623.03	NA	7	24	4	56	i	j	2472.12	1	100	1000	0	0
117	1	13	?	P	f	552.64	NA	8	24	2	56	i	n	870.73	1	1000	1000	0	0
117	1	14	?	N	d	703.12	NA	8	56	3	24	c	j	3973.81	1	1000	100	0	0
117	1	15	?	P	f	1086.21	NA	8	56	4	24	c	j	703.46	1	100	1000	0	0
117	1	16	?	P	f	468.79	NA	2	24	9	56	c	n	1587.29	1	1000	100	0	0
117	1	17	?	N	d	2287.98	NA	9	24	4	56	i	j	603.16	1	100	1000	0	0
117	1	18	?	N	d	1385.21	NA	3	24	9	56	c	n	1403.03	1	1000	100	0	0
117	1	19	?	N	d	1935.67	NA	7	24	4	56	i	j	1186.83	1	1000	100	0	0
117	1	20	?	N	d	1136.82	NA	2	56	7	24	i	n	1337.65	1	1000	100	0	0
117	1	21	?	P	f	769.85	NA	4	24	9	56	c	n	634.28	1	1000	1000	0	0
117	1	22	?	P	f	1988.15	NA	8	24	3	56	i	j	1004.18	0	100	1000	0	0
117	1	23	?	P	f	1804.19	NA	2	24	7	56	c	n	1985.94	1	100	100	0	1
117	1	24	?	P	f	669.7	NA	7	56	4	24	c	j	2004.6	1	1000	100	0	0
117	1	25	?	N	d	502.53	NA	2	56	9	24	i	n	1053.98	1	100	1000	0	0
117	1	26	?	N	d	335.92	NA	4	24	8	56	c	n	853.21	1	1000	1000	0	0
117	1	27	?	N	d	2221.38	NA	8	56	2	24	c	j	820.63	1	100	100	0	0
117	1	28	?	P	f	4190.41	NA	3	56	9	24	i	j	2588.85	1	1000	1000	0	0
117	1	29	?	P	f	1003.43	NA	8	56	2	24	c	j	603.37	1	100	100	0	0
117	1	30	?	P	f	452.51	NA	8	56	4	24	c	j	502.95	1	100	1000	0	0
117	1	31	?	N	d	352.68	NA	3	56	7	24	i	n	1971.16	1	1000	100	0	0
117	1	32	?	N	d	2671.6	NA	4	24	8	56	c	n	652.87	1	1000	1000	0	0
117	1	33	?	P	f	519.16	NA	7	56	3	24	c	j	1104.23	1	1000	1000	0	0
117	1	34	?	P	f	669.6	NA	2	56	9	24	i	n	1304.43	0	1000	100	0	0
117	1	35	?	P	f	1537.32	NA	3	56	7	24	i	j	1170.17	1	100	100	0	1
117	1	36	?	N	d	252.49	NA	4	24	7	56	c	n	1620.92	1	1000	100	0	0
117	1	37	?	N	d	252.52	NA	2	24	7	56	c	n	784.84	1	1000	1000	0	0
117	1	38	?	P	f	319.2	NA	9	56	3	24	c	j	853.74	1	1000	1000	0	0
117	1	39	?	P	f	2071.31	NA	7	24	4	56	i	n	1571.29	1	100	1000	0	0
117	1	40	?	P	f	2104.5	NA	2	56	8	24	i	j	503.47	1	100	1000	0	0
117	1	41	?	N	d	1737.54	NA	8	56	4	24	c	j	1070.03	1	1000	100	0	0
117	1	42	?	N	d	536.15	NA	3	24	8	56	c	n	1020.94	1	100	100	0	0
117	1	43	?	N	d	518.9	NA	8	24	4	56	i	j	1269.91	1	1000	1000	0	0
117	1	44	?	P	f	1287.1	NA	7	24	2	56	i	j	1170.83	0	1000	1000	0	0
117	1	45	?	P	f	536.26	NA	9	56	3	24	c	j	953.38	1	100	1000	0	1
117	1	46	?	P	f	3238.75	NA	8	24	4	56	i	j	402.82	0	1000	1000	0	0
117	1	47	?	N	d	2087.58	NA	3	56	8	24	i	n	1270.09	1	1000	100	0	1
117	1	48	?	N	d	1103.4	NA	9	56	2	24	c	j	1003.45	1	100	100	0	0
117	1	49	?	N	d	569.45	NA	4	56	9	24	i	n	887.12	1	100	100	0	0
117	1	50	?	P	f	851.26	NA	9	24	2	56	i	n	585.92	1	1000	1000	0	0
117	1	51	?	P	f	986.59	NA	4	24	9	56	c	n	453.1	1	100	1000	0	0
117	1	52	?	N	d	936.64	NA	3	56	9	24	i	j	1187.36	0	100	100	0	0
117	1	53	?	N	d	1954.12	NA	2	24	9	56	c	n	836.48	1	100	100	0	1
117	1	54	?	N	d	519.57	NA	3	56	9	24	i	n	1086.45	1	100	100	0	0
117	1	55	?	P	f	769.71	NA	2	24	8	56	c	j	1170.91	0	1000	100	0	0
117	1	56	?	P	f	1203.45	NA	9	24	4	56	i	n	850.97	1	1000	100	0	1
117	1	57	?	P	f	536.37	NA	3	56	8	24	i	j	1170.14	1	1000	100	0	0
117	1	58	?	P	f	836.91	NA	4	56	9	24	i	j	635.55	1	100	100	0	0
117	1	59	?	P	f	969.67	NA	7	24	2	56	i	n	1353.73	1	100	1000	0	0
117	1	60	?	N	d	2888.02	NA	7	24	4	56	i	j	2838.49	1	1000	1000	0	0
117	1	61	?	N	d	402.73	NA	2	24	8	56	c	n	802.78	1	100	1000	0	0
117	1	62	?	N	d	1020.33	NA	9	56	3	24	c	j	820.15	1	1000	1000	0	0
117	1	63	?	P	f	235.86	NA	7	56	4	24	c	j	3072.15	1	1000	100	0	0
117	1	64	?	P	f	402.87	NA	9	56	3	24	c	j	1120.31	1	100	1000	0	0
117	1	65	?	P	f	619.57	NA	2	24	8	56	c	n	520.22	1	100	1000	0	0
117	2	1	?	N	d	1036.47	NA	8	56	2	24	c	j	2772.7	1	1000	100	-1	0
117	2	2	?	N	d	2254.31	NA	4	24	8	56	c	n	1370.39	1	100	100	0	0
117	2	3	?	N	d	2087.71	NA	8	24	3	56	i	n	2305.04	0	1000	100	0	0
117	2	4	?	P	f	102.44	NA	4	24	8	56	c	n	1254.27	1	1000	1000	0	1
117	2	5	?	P	f	585.65	NA	8	56	3	24	c	j	1286.49	1	100	1000	0	0
117	2	6	?	N	d	35.71	NA	4	56	7	24	i	j	636.88	0	1000	100	0	0
117	2	7	?	N	d	519.29	NA	8	56	3	24	c	j	2871.86	1	100	1000	0	1
117	2	8	?	N	d	803.02	NA	9	24	2	56	i	n	937.41	0	1000	1000	0	0
117	2	9	?	P	f	0.4	NA	8	24	3	56	i	n	1587.37	1	1000	100	0	1
117	2	10	?	P	f	619.65	NA	8	24	2	56	i	n	686.8	1	100	1000	0	0
117	2	11	?	N	d	586.09	NA	8	56	3	24	c	j	1370.65	1	100	100	0	0
117	2	12	?	N	d	1569.82	NA	9	24	4	56	i	j	1320.94	1	1000	1000	0	0
117	2	13	?	N	d	936.64	NA	2	24	9	56	c	n	737.21	1	100	1000	0	0
117	2	14	?	P	f	1003.54	NA	3	56	9	24	i	j	2538.67	1	100	1000	0	0
117	2	15	?	P	f	635.96	NA	2	56	9	24	i	j	1270.57	1	100	100	0	0
117	2	16	?	P	f	619.42	NA	8	24	4	56	i	n	887.24	1	1000	100	0	0
117	2	17	?	N	d	2.53	NA	8	24	2	56	i	j	2304.91	1	1000	100	0	0
117	2	18	?	N	d	502.95	NA	8	24	3	56	i	j	986.7	1	100	100	0	0
117	2	19	?	N	d	1237.03	NA	9	24	4	56	i	n	819.3	0	1000	1000	0	0
117	2	20	?	N	d	1520.32	NA	9	56	3	24	c	j	751.03	1	1000	100	0	1
117	2	21	?	N	d	2054.92	NA	7	24	4	56	i	j	1169.9	1	100	1000	0	0
117	2	22	?	P	f	2655.23	NA	3	24	7	56	c	n	953.74	1	1000	100	0	0
117	2	23	?	P	f	652.89	NA	9	56	2	24	c	j	703.68	1	100	1000	0	0
117	2	24	?	P	f	185.82	NA	4	56	7	24	i	j	1084.9	1	1000	100	0	0
117	2	25	?	P	f	1803.9	NA	8	56	2	24	c	j	736.77	1	1000	1000	0	0
117	2	26	?	N	d	402.08	NA	8	56	3	24	c	j	1621.21	1	100	100	0	0
117	2	27	?	N	d	519.51	NA	4	56	8	24	i	n	2238.29	1	100	100	0	0
117	2	28	?	P	f	953.03	NA	3	24	8	56	c	n	1938.26	1	1000	1000	0	0
117	2	29	?	P	f	703.26	NA	4	56	7	24	i	j	1237.56	1	100	1000	0	0
117	2	30	?	N	d	550.87	NA	2	56	9	24	i	n	870.1	1	100	1000	0	0
117	2	31	?	N	d	901.27	NA	3	24	8	56	c	n	636.3	1	100	1000	0	0
117	2	32	?	P	f	502.66	NA	8	56	4	24	c	j	1186.59	1	100	1000	0	0
117	2	33	?	P	f	485.99	NA	8	56	3	24	c	j	519.5	1	100	100	0	0
117	2	34	?	N	d	433.77	NA	8	56	2	24	c	j	1087.1	1	1000	1000	0	0
117	2	35	?	N	d	402.64	NA	3	56	9	24	i	n	1436.85	1	1000	100	0	0
117	2	36	?	P	f	1086.74	NA	7	24	4	56	i	n	852.98	1	100	100	0	0
117	2	37	?	P	f	653.1	NA	7	24	3	56	i	n	1203.86	1	1000	1000	0	0
117	2	38	?	N	d	1086.51	NA	2	24	9	56	c	n	1186.25	1	1000	100	0	0
117	2	39	?	N	d	518.7	NA	4	56	7	24	i	n	1905.06	1	1000	1000	0	0
117	2	40	?	P	f	3623.12	NA	8	56	2	24	c	j	2254.73	1	1000	1000	0	0
117	2	41	?	P	f	536.32	NA	9	56	4	24	c	j	1086.71	1	1000	100	0	0
117	2	42	?	N	d	3255.92	NA	2	24	8	56	c	n	1304.28	1	1000	1000	0	0
117	2	43	?	P	f	903.35	NA	4	56	7	24	i	j	953.15	1	100	100	0	0
117	2	44	?	P	f	784.4	NA	9	24	2	56	i	n	918.09	1	100	1000	0	0
117	2	45	?	N	d	602.29	NA	9	56	4	24	c	j	1854.51	1	100	100	0	0
117	2	46	?	N	d	902.67	NA	7	24	3	56	i	j	1070.14	1	1000	1000	0	0
117	2	47	?	P	f	836.27	NA	4	24	8	56	c	n	753.1	1	100	1000	0	0
117	2	48	?	P	f	986.76	NA	3	24	9	56	c	n	768.12	1	1000	1000	0	0
117	2	49	?	N	d	1220.19	NA	8	24	4	56	i	j	1020.33	1	1000	100	0	0
117	2	50	?	N	d	502.51	NA	9	56	3	24	c	j	636.24	1	1000	100	0	0
117	2	51	?	N	d	3391.23	NA	4	24	9	56	c	n	2271.37	1	100	100	0	0
117	2	52	?	P	f	1470.76	NA	3	24	8	56	c	n	953.91	1	1000	100	0	0
117	2	53	?	P	f	1070.42	NA	8	24	2	56	i	n	636.43	1	100	100	0	0
117	2	54	?	P	f	486.44	NA	8	56	3	24	c	j	653.25	1	1000	1000	0	0
117	2	55	?	N	d	2538.08	NA	4	24	7	56	c	n	1037.11	1	1000	100	0	0
117	2	56	?	N	d	869.43	NA	3	56	8	24	i	j	1253.82	0	100	100	0	0
117	2	57	?	N	d	585.7	NA	8	56	4	24	c	j	869.9	1	1000	100	0	1
117	2	58	?	P	f	2054.57	NA	2	24	7	56	c	n	1136.9	1	100	100	0	0
117	2	59	?	P	f	686.09	NA	7	24	4	56	i	n	720.08	1	1000	1000	0	0
117	2	60	?	P	f	1536.93	NA	3	24	7	56	c	n	603.08	1	100	100	0	0
117	2	61	?	N	d	1537.3	NA	4	56	7	24	i	n	750.92	1	100	1000	0	0
117	2	62	?	N	d	1686.92	NA	3	24	8	56	c	n	483.92	1	100	1000	0	0
117	2	63	?	N	d	502.53	NA	2	56	9	24	i	n	570.17	1	1000	1000	0	0
117	2	64	?	P	f	1187.04	NA	4	56	9	24	i	j	1988.1	1	100	1000	0	0
117	2	65	?	P	f	953.19	NA	3	56	9	24	i	j	1521.23	1	100	100	0	0
117	3	1	?	N	d	2519.92	NA	4	56	7	24	i	n	1485.29	1	1000	1000	-1	0
117	3	2	?	N	d	1637.84	NA	9	56	2	24	c	j	887.95	1	1000	1000	0	0
117	3	3	?	P	f	2321.37	NA	4	56	8	24	i	j	1371.0	1	1000	100	0	0
117	3	4	?	P	f	585.56	NA	3	56	8	24	i	j	920.13	1	100	1000	0	0
117	3	5	?	P	f	920.62	NA	8	24	4	56	i	n	920.05	1	100	1000	0	0
117	3	6	?	N	d	1219.86	NA	8	56	2	24	c	j	720.27	1	1000	1000	0	0
117	3	7	?	N	d	1320.27	NA	4	24	7	56	c	n	1020.36	1	1000	100	0	0
117	3	8	?	P	f	836.77	NA	3	56	8	24	i	j	2488.77	1	100	100	0	0
117	3	9	?	N	d	1803.99	NA	8	24	4	56	i	j	786.86	1	1000	1000	0	0
117	3	10	?	N	d	1153.59	NA	9	24	2	56	i	j	1588.07	1	1000	100	0	0
117	3	11	?	P	f	686.59	NA	4	24	9	56	c	n	3122.37	1	100	1000	0	0
117	3	12	?	P	f	585.76	NA	8	56	3	24	c	j	852.72	1	100	100	0	0
117	3	13	?	P	f	385.76	NA	4	24	7	56	c	n	720.03	1	100	1000	0	0
117	3	14	?	N	d	619.91	NA	9	24	2	56	i	j	1052.04	1	100	100	0	0
117	3	15	?	N	d	352.5	NA	3	56	7	24	i	n	2322.17	1	1000	1000	0	0
117	3	16	?	N	d	652.36	NA	7	24	2	56	i	j	1220.43	1	100	100	0	0
117	3	17	?	P	f	636.2	NA	7	56	3	24	c	j	886.4	1	100	100	0	0
117	3	18	?	P	f	517.44	NA	9	24	4	56	i	n	2121.32	1	1000	1000	0	0
117	3	19	?	P	f	386.59	NA	9	56	3	24	c	j	1070.32	1	100	100	0	0
117	3	20	?	P	f	2939.12	NA	2	24	7	56	c	n	937.06	1	100	100	0	0
117	3	21	?	N	d	2070.47	NA	3	56	9	24	i	n	3940.48	1	100	1000	0	0
117	3	22	?	N	d	402.88	NA	7	56	2	24	c	j	1036.98	1	100	1000	0	0
117	3	23	?	N	d	520.46	NA	4	56	9	24	i	n	1186.77	1	1000	100	0	0
117	3	24	?	P	f	953.3	NA	7	24	2	56	i	j	2038.55	0	100	1000	0	0
117	3	25	?	P	f	202.34	NA	7	56	4	24	c	j	536.32	1	1000	1000	0	1
117	3	26	?	P	f	1954.51	NA	3	56	8	24	i	j	1554.18	1	1000	1000	0	0
117	3	27	?	N	d	585.65	NA	4	56	7	24	i	n	1420.78	1	100	100	0	0
117	3	28	?	N	d	870.41	NA	7	56	2	24	c	j	1087.6	1	100	1000	0	0
117	3	29	?	N	d	2438.48	NA	4	56	8	24	i	n	819.99	1	1000	1000	0	0
117	3	30	?	P	f	886.57	NA	2	24	8	56	c	n	1685.45	1	1000	1000	0	0
117	3	31	?	P	f	1871.76	NA	8	56	4	24	c	j	1703.51	1	100	1000	0	0
117	3	32	?	P	f	386.14	NA	9	56	2	24	c	j	653.7	1	1000	100	0	0
117	3	33	?	P	f	585.74	NA	3	24	7	56	c	n	753.24	1	1000	1000	0	0
117	3	34	?	P	f	2805.04	NA	2	56	8	24	i	j	1788.32	1	100	1000	0	0
117	3	35	?	N	d	2071.38	NA	3	56	7	24	i	n	1888.45	1	100	100	0	0
117	3	36	?	N	d	536.03	NA	2	56	8	24	i	n	1187.43	1	1000	100	0	0
117	3	37	?	N	d	2354.72	NA	7	24	4	56	i	j	1771.35	1	100	100	0	0
117	3	38	?	P	f	1370.31	NA	9	24	2	56	i	n	1486.77	1	1000	100	0	0
117	3	39	?	P	f	769.96	NA	4	56	8	24	i	j	884.34	1	100	1000	0	0
117	3	40	?	N	d	485.75	NA	2	24	9	56	c	n	1069.55	1	1000	100	0	0
117	3	41	?	N	d	1887.81	NA	4	24	9	56	c	n	603.09	1	100	100	0	0
117	3	42	?	N	d	336.03	NA	9	56	3	24	c	j	636.68	1	1000	100	0	0
117	3	43	?	P	f	536.03	NA	8	24	2	56	i	n	1804.39	1	1000	1000	0	0
117	3	44	?	P	f	836.71	NA	3	56	8	24	i	j	703.86	1	100	1000	0	0
117	3	45	?	P	f	552.67	NA	9	24	2	56	i	n	937.0	1	100	100	0	0
117	3	46	?	N	d	419.33	NA	9	56	4	24	c	j	4974.95	1	1000	100	0	0
117	3	47	?	N	d	552.83	NA	9	56	2	24	c	j	953.36	1	100	1000	0	0
117	3	48	?	N	d	352.79	NA	8	24	4	56	i	j	1688.46	1	1000	100	0	0
117	3	49	?	N	d	352.64	NA	9	56	2	24	c	j	1988.61	1	1000	1000	0	0
117	3	50	?	P	f	1353.52	NA	4	24	8	56	c	j	986.08	0	100	100	0	0
117	3	51	?	P	f	536.2	NA	2	56	9	24	i	j	1337.26	1	1000	1000	0	1
117	3	52	?	P	f	2755.38	NA	8	56	3	24	c	j	954.11	1	100	100	0	0
117	3	53	?	N	d	336.03	NA	2	24	8	56	c	n	919.43	1	1000	100	0	0
117	3	54	?	N	d	319.08	NA	3	24	8	56	c	n	1904.36	1	1000	1000	0	0
117	3	55	?	N	d	786.75	NA	4	24	9	56	c	n	619.61	1	100	1000	0	0
117	3	56	?	P	f	1203.6	NA	7	24	3	56	i	j	1787.59	0	100	1000	0	0
117	3	57	?	P	f	1137.21	NA	4	56	8	24	i	j	1691.82	1	1000	100	0	1
117	3	58	?	P	f	637.71	NA	7	56	3	24	c	j	737.52	1	1000	100	0	0
117	3	59	?	P	f	1305.09	NA	4	24	9	56	c	n	671.16	1	1000	100	0	0
117	3	60	?	N	d	1275.18	NA	3	24	7	56	c	n	1839.14	1	1000	1000	0	0
117	3	61	?	N	d	521.09	NA	2	56	7	24	i	n	887.98	1	100	100	0	0
117	3	62	?	N	d	354.17	NA	4	56	7	24	i	n	1401.14	1	1000	100	0	0
117	3	63	?	P	f	470.54	NA	3	56	7	24	i	j	1556.09	1	1000	1000	0	0
117	3	64	?	P	f	1738.7	NA	2	24	8	56	c	n	1388.95	1	100	1000	0	0
117	3	65	?	P	f	2669.87	NA	4	24	8	56	c	n	570.81	1	100	100	0	0
117	4	1	?	N	d	854.38	NA	4	56	8	24	i	n	1422.19	1	1000	1000	-1	0
117	4	2	?	N	d	1287.65	NA	9	56	2	24	c	j	954.41	1	1000	100	0	0
117	4	3	?	N	d	971.31	NA	4	56	9	24	i	n	1472.06	1	100	1000	0	0
117	4	4	?	P	f	33.48	NA	2	56	8	24	i	n	1421.22	0	1000	1000	0	0
117	4	5	?	P	f	1087.67	NA	3	24	7	56	c	n	2507.04	1	100	100	0	1
117	4	6	?	P	f	87.15	NA	2	24	9	56	c	n	705.32	1	1000	100	0	0
117	4	7	?	P	f	154.16	NA	7	56	4	24	c	j	1489.43	1	1000	100	0	0
117	4	8	?	P	f	3924.95	NA	2	24	7	56	c	n	1304.71	1	1000	1000	0	0
117	4	9	?	N	d	803.99	NA	8	24	4	56	i	j	1171.65	1	100	100	0	0
117	4	10	?	N	d	1572.66	NA	3	56	8	24	i	n	2523.93	1	100	100	0	0
117	4	11	?	N	d	203.82	NA	9	56	2	24	c	j	1405.55	1	1000	100	0	0
117	4	12	?	P	f	1304.72	NA	4	24	9	56	c	n	705.05	1	1000	1000	0	0
117	4	13	?	P	f	521.04	NA	8	56	2	24	c	j	604.24	1	1000	1000	0	0
117	4	14	?	N	d	971.49	NA	7	56	3	24	c	j	1338.99	1	100	1000	0	0
117	4	15	?	N	d	838.19	NA	8	24	2	56	i	j	2140.21	1	100	100	0	0
117	4	16	?	P	f	938.04	NA	9	24	4	56	i	n	738.05	1	100	1000	0	0
117	4	17	?	P	f	1138.05	NA	3	56	8	24	i	j	3787.84	1	100	100	0	0
117	4	18	?	P	f	687.75	NA	9	24	4	56	i	n	3107.84	1	100	1000	0	0
117	4	19	?	P	f	1055.1	NA	3	24	8	56	c	n	804.38	1	1000	100	0	0
117	4	20	?	P	f	2706.51	NA	8	56	2	24	c	j	1722.76	1	100	1000	0	0
117	4	21	?	N	d	504.07	NA	8	56	4	24	c	j	1054.76	1	100	100	0	0
117	4	22	?	N	d	53.67	NA	9	56	2	24	c	j	1371.81	1	1000	1000	0	0
117	4	23	?	N	d	1421.85	NA	3	24	7	56	c	n	1055.2	1	100	1000	0	0
117	4	24	?	P	f	319.54	NA	9	56	2	24	c	j	751.53	1	1000	1000	0	0
117	4	25	?	P	f	170.7	NA	3	24	9	56	c	n	517.67	1	1000	1000	0	0
117	4	26	?	N	d	387.17	NA	4	56	9	24	i	n	1472.46	1	1000	100	0	0
117	4	27	?	P	f	2222.75	NA	3	24	8	56	c	n	705.21	1	100	1000	0	0
117	4	28	?	P	f	370.72	NA	9	24	4	56	i	n	437.15	1	1000	1000	0	0
117	4	29	?	N	d	1572.11	NA	3	24	7	56	c	n	637.86	1	100	1000	0	0
117	4	30	?	N	d	1087.77	NA	8	56	4	24	c	j	737.99	1	100	100	0	0
117	4	31	?	N	d	136.58	NA	7	24	2	56	i	j	1054.66	1	1000	1000	0	0
117	4	32	?	N	d	1205.03	NA	9	24	3	56	i	j	2189.51	1	1000	100	0	0
117	4	33	?	P	f	253.97	NA	4	56	9	24	i	j	2072.79	1	1000	1000	0	0
117	4	34	?	P	f	1021.27	NA	9	24	2	56	i	n	1805.59	1	1000	100	0	0
117	4	35	?	P	f	571.01	NA	7	24	3	56	i	n	621.17	1	100	100	0	0
117	4	36	?	N	d	671.23	NA	4	24	9	56	c	n	1355.83	1	1000	100	0	0
117	4	37	?	N	d	571.01	NA	8	56	3	24	c	j	921.14	1	100	100	0	0
117	4	38	?	N	d	353.99	NA	9	24	2	56	i	j	1005.17	1	100	100	0	0
117	4	39	?	P	f	1201.03	NA	8	56	3	24	c	j	1389.07	1	100	1000	0	0
117	4	40	?	P	f	87.36	NA	2	56	9	24	i	j	1021.12	1	1000	1000	0	0
117	4	41	?	P	f	20.71	NA	7	24	4	56	i	n	1222.32	1	1000	1000	0	0
117	4	42	?	N	d	570.63	NA	2	56	7	24	i	n	1254.76	1	100	100	0	0
117	4	43	?	N	d	1455.21	NA	4	24	9	56	c	n	684.34	1	100	1000	0	0
117	4	44	?	N	d	1572.09	NA	3	56	8	24	i	n	801.44	1	100	1000	0	0
117	4	45	?	N	d	1822.17	NA	9	24	4	56	i	j	821.81	1	100	1000	0	0
117	4	46	?	P	f	604.17	NA	3	24	7	56	c	n	3391.35	1	100	100	0	0
117	4	47	?	P	f	821.69	NA	4	56	7	24	i	n	1655.82	0	100	1000	0	0
117	4	48	?	P	f	1238.34	NA	3	56	8	24	i	j	954.68	1	1000	100	0	1
117	4	49	?	P	f	1404.72	NA	2	56	9	24	i	j	971.7	1	100	1000	0	0
117	4	50	?	N	d	353.83	NA	9	24	4	56	i	j	1088.35	1	1000	100	0	0
117	4	51	?	N	d	220.33	NA	2	56	7	24	i	n	917.63	1	1000	100	0	0
117	4	52	?	N	d	420.53	NA	3	56	8	24	i	n	1004.2	1	1000	100	0	0
117	4	53	?	N	d	871.07	NA	4	56	7	24	i	n	821.23	1	100	100	0	0
117	4	54	?	P	f	304.05	NA	2	56	7	24	i	j	788.03	1	1000	100	0	0
117	4	55	?	P	f	270.55	NA	9	24	4	56	i	n	688.63	1	1000	1000	0	0
117	4	56	?	P	f	219.92	NA	2	24	9	56	c	n	571.73	1	1000	1000	0	0
117	4	57	?	P	f	687.61	NA	7	56	4	24	c	j	886.73	1	1000	100	0	0
117	4	58	?	N	d	3357.17	NA	2	24	8	56	c	n	3307.91	1	100	100	0	0
117	4	59	?	N	d	504.62	NA	3	24	8	56	c	n	554.64	1	100	100	0	0
117	4	60	?	N	d	504.34	NA	7	56	4	24	c	j	771.89	1	100	1000	0	0
117	4	61	?	N	d	871.4	NA	9	24	3	56	i	j	1039.09	1	100	1000	0	0
117	4	62	?	P	f	704.28	NA	9	56	4	24	c	j	971.88	1	1000	1000	0	0
117	4	63	?	P	f	504.0	NA	7	24	3	56	i	n	537.01	1	1000	1000	0	0
117	4	64	?	P	f	1271.97	NA	7	56	2	24	c	j	737.63	1	100	100	0	0
117	4	65	?	P	f	604.42	NA	3	24	8	56	c	n	618.12	1	1000	100	0	0
117	5	1	?	N	d	136.89	NA	7	24	2	56	i	n	1422.4	0	1000	1000	-1	0
117	5	2	?	N	d	1072.0	NA	3	24	8	56	c	n	2105.68	1	100	1000	0	1
117	5	3	?	N	d	337.43	NA	4	24	9	56	c	n	871.6	1	100	1000	0	0
117	5	4	?	P	f	754.4	NA	9	24	3	56	i	n	1155.53	1	100	100	0	0
117	5	5	?	P	f	704.71	NA	4	24	7	56	c	n	905.23	1	1000	100	0	0
117	5	6	?	P	f	1939.19	NA	7	24	3	56	i	n	1705.85	1	100	1000	0	0
117	5	7	?	N	d	203.83	NA	2	24	8	56	c	n	970.99	1	1000	100	0	0
117	5	8	?	N	d	1638.96	NA	3	24	9	56	c	n	620.81	1	100	100	0	0
117	5	9	?	N	d	287.44	NA	4	56	7	24	i	n	971.54	1	1000	1000	0	0
117	5	10	?	P	f	771.37	NA	9	24	3	56	i	n	818.08	1	100	100	0	0
117	5	11	?	P	f	621.03	NA	4	24	7	56	c	n	1039.31	1	100	100	0	0
117	5	12	?	P	f	586.98	NA	7	56	3	24	c	j	470.94	1	1000	1000	0	0
117	5	13	?	N	d	350.44	NA	9	56	2	24	c	j	1272.26	1	100	100	0	0
117	5	14	?	N	d	1171.85	NA	7	24	3	56	i	j	1455.21	1	100	100	0	0
117	5	15	?	N	d	637.82	NA	9	56	4	24	c	j	854.89	1	1000	1000	0	0
117	5	16	?	P	f	254.11	NA	2	24	7	56	c	n	688.28	1	1000	1000	0	0
117	5	17	?	P	f	754.04	NA	7	56	4	24	c	j	888.18	1	100	100	0	0
117	5	18	?	N	d	554.04	NA	7	24	3	56	i	j	1238.73	1	100	1000	0	0
117	5	19	?	N	d	353.6	NA	2	56	7	24	i	n	1155.17	1	1000	1000	0	0
117	5	20	?	N	d	303.98	NA	4	56	7	24	i	n	654.94	1	1000	100	0	0
117	5	21	?	P	f	553.9	NA	2	24	8	56	c	n	1472.32	1	1000	1000	0	0
117	5	22	?	P	f	721.57	NA	4	24	8	56	c	n	571.09	1	100	100	0	0
117	5	23	?	P	f	937.77	NA	3	56	7	24	i	n	888.51	0	100	1000	0	0
117	5	24	?	N	d	370.78	NA	2	56	8	24	i	n	1188.76	1	1000	100	0	1
117	5	25	?	N	d	1972.37	NA	3	56	7	24	i	n	587.8	1	100	100	0	0
117	5	26	?	N	d	287.46	NA	2	24	8	56	c	n	604.28	1	1000	1000	0	0
117	5	27	?	P	f	1272.05	NA	8	24	3	56	i	n	671.47	1	100	1000	0	0
117	5	28	?	P	f	1321.63	NA	8	24	2	56	i	n	1755.73	1	1000	100	0	0
117	5	29	?	P	f	654.32	NA	9	56	4	24	c	j	938.45	1	100	1000	0	0
117	5	30	?	P	f	954.58	NA	3	24	9	56	c	n	737.9	1	100	100	0	0
117	5	31	?	N	d	1722.06	NA	8	56	4	24	c	j	704.63	1	100	1000	0	0
117	5	32	?	N	d	554.64	NA	9	24	3	56	i	j	1255.11	1	1000	100	0	0
117	5	33	?	N	d	370.71	NA	4	24	8	56	c	n	804.57	1	1000	100	0	0
117	5	34	?	P	f	1070.54	NA	8	24	3	56	i	n	621.43	1	100	1000	0	0
117	5	35	?	P	f	336.99	NA	7	24	4	56	i	n	488.22	1	1000	1000	0	0
117	5	36	?	P	f	337.49	NA	2	56	8	24	i	j	1706.18	1	1000	1000	0	0
117	5	37	?	N	d	320.55	NA	8	56	4	24	c	j	587.5	1	1000	1000	0	0
117	5	38	?	N	d	1388.35	NA	8	24	3	56	i	j	1221.44	1	100	100	0	0
117	5	39	?	N	d	536.99	NA	9	24	2	56	i	j	1301.92	1	1000	1000	0	0
117	5	40	?	P	f	404.07	NA	4	56	9	24	i	j	754.97	1	1000	1000	0	0
117	5	41	?	P	f	487.15	NA	3	24	7	56	c	n	1505.5	1	1000	100	0	0
117	5	42	?	P	f	1254.61	NA	4	56	7	24	i	j	1589.31	1	100	100	0	0
117	5	43	?	P	f	1154.86	NA	7	56	2	24	c	j	605.0	1	100	100	0	0
117	5	44	?	P	f	520.96	NA	8	56	3	24	c	j	604.82	1	1000	100	0	0
117	5	45	?	P	f	1789.12	NA	9	24	4	56	i	n	938.25	1	100	1000	0	0
117	5	46	?	N	d	1254.97	NA	9	56	3	24	c	j	737.59	1	100	1000	0	0
117	5	47	?	N	d	2039.56	NA	2	24	8	56	c	n	904.83	1	1000	1000	0	0
117	5	48	?	P	f	583.72	NA	4	56	7	24	i	j	1305.95	1	1000	100	0	0
117	5	49	?	P	f	805.6	NA	3	56	9	24	i	j	701.43	1	100	1000	0	0
117	5	50	?	P	f	671.4	NA	4	56	8	24	i	j	487.23	1	100	100	0	0
117	5	51	?	N	d	437.39	NA	2	56	7	24	i	n	637.51	1	1000	1000	0	0
117	5	52	?	N	d	270.3	NA	8	24	4	56	i	j	955.44	1	1000	1000	0	0
117	5	53	?	N	d	937.86	NA	2	24	9	56	c	n	838.1	1	100	1000	0	0
117	5	54	?	P	f	353.9	NA	7	56	4	24	c	j	571.55	1	1000	100	0	0
117	5	55	?	P	f	337.46	NA	3	56	8	24	i	j	955.58	1	1000	100	0	0
117	5	56	?	N	d	1322.36	NA	4	24	8	56	c	n	687.47	1	100	1000	0	0
117	5	57	?	N	d	654.4	NA	8	56	3	24	c	j	788.08	1	1000	100	0	0
117	5	58	?	N	d	287.47	NA	8	24	4	56	i	j	987.9	1	1000	100	0	0
117	5	59	?	P	f	1638.84	NA	7	24	2	56	i	n	1268.65	1	100	100	0	0
117	5	60	?	P	f	1221.89	NA	7	56	3	24	c	j	1555.6	1	100	100	0	0
117	5	61	?	P	f	620.84	NA	4	56	9	24	i	j	687.48	1	100	1000	0	0
117	5	62	?	N	d	120.34	NA	3	56	7	24	i	n	1221.85	1	1000	100	0	0
117	5	63	?	N	d	200.25	NA	8	56	4	24	c	j	2106.13	1	1000	100	0	0
117	5	64	?	N	d	504.11	NA	9	56	3	24	c	j	2040.17	1	1000	1000	0	0
117	5	65	?	P	f	654.42	NA	9	56	4	24	c	j	553.5	1	100	1000	0	0
117	6	1	?	N	d	1271.82	NA	4	56	8	24	i	n	1455.65	1	100	1000	-1	0
117	6	2	?	N	d	754.74	NA	9	56	2	24	c	j	1272.44	1	100	100	0	0
117	6	3	?	N	d	337.02	NA	3	56	8	24	i	n	821.15	1	1000	100	0	0
117	6	4	?	P	f	721.16	NA	2	56	9	24	i	j	770.92	1	1000	100	0	0
117	6	5	?	P	f	616.9	NA	8	24	3	56	i	n	654.86	1	1000	100	0	0
117	6	6	?	P	f	1088.07	NA	4	24	9	56	c	n	538.08	1	100	100	0	0
117	6	7	?	N	d	3.83	NA	2	24	9	56	c	n	1388.6	1	1000	1000	0	0
117	6	8	?	N	d	788.35	NA	3	24	9	56	c	n	587.75	1	100	100	0	0
117	6	9	?	N	d	220.66	NA	8	56	2	24	c	j	920.85	1	1000	100	0	0
117	6	10	?	P	f	1238.36	NA	7	56	4	24	c	j	771.49	1	100	100	0	0
117	6	11	?	P	f	253.88	NA	9	56	2	24	c	j	604.79	1	1000	1000	0	0
117	6	12	?	N	d	1154.31	NA	3	56	8	24	i	n	1404.86	1	100	1000	0	0
117	6	13	?	N	d	487.79	NA	4	56	7	24	i	n	1338.81	1	1000	1000	0	0
117	6	14	?	N	d	337.11	NA	2	24	8	56	c	n	504.0	1	1000	100	0	0
117	6	15	?	P	f	387.46	NA	8	56	4	24	c	j	654.92	1	1000	100	0	0
117	6	16	?	P	f	387.63	NA	2	24	7	56	c	n	771.77	1	1000	100	0	0
117	6	17	?	P	f	1555.31	NA	9	24	4	56	i	n	637.92	1	100	100	0	0
117	6	18	?	P	f	305.24	NA	8	56	3	24	c	j	554.91	1	1000	1000	0	0
117	6	19	?	N	d	1271.84	NA	7	24	2	56	i	n	1005.09	0	100	1000	0	0
117	6	20	?	N	d	103.66	NA	3	56	7	24	i	n	1305.78	1	1000	100	0	1
117	6	21	?	N	d	2456.06	NA	7	56	4	24	c	j	1522.35	1	100	1000	0	0
117	6	22	?	P	f	887.74	NA	8	56	3	24	c	j	487.26	1	100	100	0	0
117	6	23	?	P	f	2156.21	NA	8	56	2	24	c	j	537.7	1	100	100	0	0
117	6	24	?	P	f	620.12	NA	7	24	4	56	i	n	1806.01	1	100	100	0	0
117	6	25	?	P	f	1338.59	NA	2	56	7	24	i	j	621.35	1	100	1000	0	0
117	6	26	?	N	d	437.01	NA	3	56	8	24	i	n	817.36	1	1000	1000	0	0
117	6	27	?	N	d	2773.54	NA	2	24	7	56	c	n	872.12	1	100	1000	0	0
117	6	28	?	N	d	853.77	NA	7	56	3	24	c	j	1021.6	1	1000	1000	0	0
117	6	29	?	P	f	704.34	NA	2	56	7	24	i	j	868.59	1	100	100	0	0
117	6	30	?	P	f	387.38	NA	3	24	9	56	c	n	721.29	1	1000	1000	0	0
117	6	31	?	P	f	2039.07	NA	4	56	8	24	i	n	838.33	0	100	1000	0	0
117	6	32	?	N	d	200.41	NA	3	24	7	56	c	n	1005.27	1	1000	1000	0	1
117	6	33	?	N	d	1487.89	NA	9	56	4	24	c	j	654.87	1	100	1000	0	0
117	6	34	?	N	d	853.81	NA	3	24	7	56	c	n	1221.92	1	100	100	0	0
117	6	35	?	P	f	420.63	NA	9	56	4	24	c	j	888.98	1	1000	100	0	0
117	6	36	?	P	f	3657.68	NA	9	24	3	56	i	j	3057.25	0	100	100	0	0
117	6	37	?	P	f	837.29	NA	4	56	8	24	i	j	2256.11	1	1000	100	0	1
117	6	38	?	P	f	520.44	NA	3	56	7	24	i	j	654.47	1	1000	1000	0	0
117	6	39	?	N	d	387.03	NA	4	24	8	56	c	n	504.51	1	1000	1000	0	0
117	6	40	?	N	d	971.12	NA	2	56	7	24	i	n	837.38	1	100	1000	0	0
117	6	41	?	N	d	1053.82	NA	3	24	8	56	c	n	604.14	1	1000	100	0	0
117	6	42	?	P	f	353.88	NA	4	56	9	24	i	j	1205.53	1	1000	100	0	0
117	6	43	?	P	f	520.93	NA	8	24	3	56	i	n	488.13	1	1000	1000	0	0
117	6	44	?	P	f	701.2	NA	2	24	8	56	c	n	571.42	1	100	1000	0	0
117	6	45	?	N	d	320.64	NA	8	24	3	56	i	j	1338.47	1	1000	100	0	0
117	6	46	?	N	d	804.44	NA	7	24	2	56	i	j	1989.31	1	100	1000	0	0
117	6	47	?	P	f	2189.26	NA	4	24	8	56	c	n	1271.62	1	100	1000	0	0
117	6	48	?	P	f	370.55	NA	3	56	8	24	i	j	637.58	1	1000	1000	0	0
117	6	49	?	N	d	971.54	NA	4	56	8	24	i	n	3808.23	1	100	1000	0	0
117	6	50	?	N	d	153.18	NA	7	56	2	24	c	j	955.1	1	100	1000	0	0
117	6	51	?	N	d	770.93	NA	4	56	9	24	i	n	818.34	1	100	1000	0	0
117	6	52	?	P	f	420.01	NA	3	24	9	56	c	n	637.64	1	100	1000	0	0
117	6	53	?	P	f	521.7	NA	4	56	7	24	i	n	338.08	0	1000	1000	0	0
117	6	54	?	P	f	270.44	NA	2	24	8	56	c	n	1287.96	1	1000	100	0	1
117	6	55	?	P	f	754.61	NA	4	56	7	24	i	j	1238.67	1	1000	1000	0	0
117	6	56	?	N	d	137.61	NA	2	56	7	24	i	n	1038.24	1	1000	1000	0	0
117	6	57	?	N	d	2138.55	NA	7	24	4	56	i	j	1239.13	1	100	100	0	0
117	6	58	?	N	d	1922.37	NA	9	56	2	24	c	j	554.98	1	1000	1000	0	0
117	6	59	?	P	f	804.48	NA	4	24	7	56	c	n	754.38	1	100	100	0	0
117	6	60	?	P	f	1184.43	NA	3	56	8	24	i	j	621.87	1	100	100	0	0
117	6	61	?	P	f	787.91	NA	4	56	8	24	i	j	1138.39	1	100	100	0	0
117	6	62	?	N	d	1054.87	NA	8	56	2	24	c	j	1739.16	1	100	1000	0	0
117	6	63	?	N	d	1638.75	NA	4	56	8	24	i	j	1455.83	0	100	100	0	0
117	6	64	?	N	d	1088.26	NA	9	56	3	24	c	j	654.82	1	1000	100	0	1
117	6	65	?	N	d	387.05	NA	4	56	8	24	i	n	736.86	1	1000	100	0	0
