subj	block	trial	task_cue	task	choice_resp	choiceRT	choice_acc	topnum	topsize	botnum	botsize	cong	task_resp	taskRT	task_acc	RSI	CSI	altRep	E1
120	1	1	P	P	d	752.93	1	3	56	7	24	i	j	619.85	1	1000	1000	-1	0
120	1	2	N	N	f	536.53	0	2	24	7	56	c	n	886.44	1	1000	100	1	0
120	1	3	P	P	d	536.82	1	4	56	8	24	i	j	1822.13	1	1000	1000	1	0
120	1	4	N	N	f	453.4	0	7	24	3	56	i	j	621.25	1	1000	1000	1	0
120	1	5	N	N	f	1521.37	0	2	24	8	56	c	n	1855.19	1	100	1000	0	0
120	1	6	P	P	d	409.75	1	8	56	3	24	c	j	609.79	1	1000	100	1	0
120	1	7	N	N	f	772.13	0	9	56	4	24	c	j	1320.39	1	100	100	1	0
120	1	8	P	P	d	504.1	1	7	24	2	56	i	n	605.19	1	1000	100	1	0
120	1	9	P	P	d	1157.0	1	3	24	7	56	c	n	469.38	1	100	1000	0	0
120	1	10	N	N	f	904.16	0	2	56	7	24	i	n	753.95	1	100	100	1	0
120	1	11	P	P	d	737.33	1	3	24	8	56	c	n	1038.39	1	100	100	1	0
120	1	12	P	P	d	470.76	1	2	56	7	24	i	j	353.77	1	1000	1000	0	0
120	1	13	P	P	d	704.08	1	9	56	4	24	c	j	435.44	1	100	1000	0	0
120	1	14	P	P	d	554.45	1	8	24	3	56	i	n	670.05	1	1000	100	0	0
120	1	15	P	P	d	569.62	1	2	24	8	56	c	n	669.52	1	1000	100	0	0
120	1	16	P	P	d	652.97	1	8	56	3	24	c	j	502.58	1	100	100	0	0
120	1	17	P	P	d	552.66	1	9	56	2	24	c	j	419.99	1	1000	1000	0	0
120	1	18	N	N	f	803.24	0	7	24	4	56	i	j	586.72	1	1000	100	1	0
120	1	19	P	P	d	703.09	1	3	56	9	24	i	j	453.37	1	100	100	1	0
120	1	20	N	N	f	553.64	0	7	24	4	56	i	j	1620.71	1	100	1000	1	0
120	1	21	P	P	d	769.95	1	8	24	3	56	i	n	1486.8	1	100	100	1	0
120	1	22	P	P	d	536.7	1	7	24	4	56	i	n	452.88	1	1000	1000	0	0
120	1	23	P	P	d	552.78	1	8	24	2	56	i	n	818.12	1	100	1000	0	0
120	1	24	P	P	d	636.11	1	3	56	7	24	i	j	836.5	1	100	100	0	0
120	1	25	N	N	f	553.05	0	7	56	2	24	c	j	1287.28	1	1000	1000	1	0
120	1	26	N	N	f	803.06	0	7	24	4	56	i	j	1053.7	1	1000	1000	0	0
120	1	27	N	N	f	902.57	0	9	24	3	56	i	j	1254.22	1	100	100	0	0
120	1	28	N	N	f	652.83	0	2	56	7	24	i	n	568.52	1	1000	100	0	0
120	1	29	P	P	d	603.13	1	3	24	8	56	c	n	970.15	1	100	1000	1	0
120	1	30	N	N	f	653.55	0	2	56	8	24	i	n	2505.7	1	1000	100	1	0
120	1	31	P	P	d	719.59	1	8	56	3	24	c	j	1618.56	1	1000	1000	1	0
120	1	32	P	P	d	619.97	1	2	24	7	56	c	n	485.95	1	100	100	0	0
120	1	33	P	P	d	419.5	1	3	56	9	24	i	j	636.41	1	1000	100	0	0
120	1	34	P	P	d	452.42	1	8	24	4	56	i	n	486.52	1	100	100	0	0
120	1	35	P	P	d	419.33	1	7	56	2	24	c	j	453.08	1	1000	100	0	0
120	1	36	N	N	f	653.09	0	8	24	3	56	i	j	520.05	1	100	100	1	0
120	1	37	N	N	f	769.64	0	8	24	4	56	i	j	602.95	1	1000	100	0	0
120	1	38	P	P	f	1536.89	1	7	24	3	56	i	n	4241.16	1	1000	1000	1	0
120	1	39	N	N	f	2171.6	0	4	24	7	56	c	n	970.42	1	100	1000	1	0
120	1	40	N	N	f	1271.1	0	8	56	3	24	c	j	1937.8	1	100	100	0	0
120	1	41	P	P	d	652.7	1	8	24	4	56	i	n	653.29	1	100	1000	1	0
120	1	42	P	P	d	586.63	1	3	56	8	24	i	j	569.72	1	100	1000	0	0
120	1	43	N	N	f	652.59	0	4	56	7	24	i	n	553.09	1	1000	1000	1	0
120	1	44	P	P	d	503.03	1	2	24	8	56	c	n	1303.65	1	1000	1000	1	0
120	1	45	N	N	f	686.7	0	3	56	9	24	i	n	669.71	1	100	1000	1	0
120	1	46	N	N	f	568.9	0	7	56	2	24	c	j	2622.37	1	1000	1000	0	0
120	1	47	N	N	f	1470.27	0	4	56	8	24	i	n	702.31	1	1000	1000	0	0
120	1	48	P	P	d	703.09	1	9	56	3	24	c	j	470.18	1	100	1000	1	0
120	1	49	N	N	f	619.82	0	7	56	2	24	c	j	1336.9	1	1000	100	1	0
120	1	50	N	N	f	686.01	0	4	24	8	56	c	n	686.95	1	100	100	0	0
120	1	51	N	N	f	1036.58	0	3	56	9	24	i	n	1054.22	1	100	1000	0	0
120	1	52	P	P	d	1988.2	1	2	24	9	56	c	n	1654.26	1	1000	100	1	0
120	1	53	N	N	f	651.45	0	8	56	3	24	c	j	786.44	1	100	1000	1	0
120	1	54	N	N	f	586.04	0	4	24	9	56	c	n	1487.16	1	1000	100	0	0
120	1	55	P	P	d	669.91	1	3	56	8	24	i	j	486.07	1	1000	100	1	0
120	1	56	N	N	f	686.25	0	4	24	7	56	c	n	985.93	1	100	100	1	0
120	1	57	N	N	f	468.93	0	8	56	2	24	c	j	886.64	1	1000	100	0	0
120	1	58	N	N	f	353.29	0	4	24	9	56	c	n	753.74	1	1000	1000	0	0
120	1	59	P	P	d	836.65	1	7	56	3	24	c	j	870.02	1	100	100	1	0
120	1	60	N	N	f	519.8	0	2	24	8	56	c	n	987.62	1	1000	1000	1	0
120	1	61	N	N	f	493.76	0	8	24	3	56	i	j	1188.28	1	100	1000	0	0
120	1	62	N	N	f	786.97	0	7	56	2	24	c	j	556.66	1	100	1000	0	0
120	1	63	N	N	f	508.42	0	4	56	8	24	i	n	705.74	1	100	100	0	0
120	1	64	P	P	d	540.01	1	2	56	9	24	i	j	987.87	1	100	1000	1	0
120	1	65	P	P	d	320.19	1	4	24	7	56	c	n	1521.25	1	1000	1000	0	0
120	2	1	N	N	f	687.87	0	7	24	2	56	i	j	919.95	1	1000	1000	-1	0
120	2	2	P	P	d	669.94	1	7	56	3	24	c	j	1003.53	1	1000	100	1	0
120	2	3	N	N	f	552.56	0	2	56	9	24	i	n	1404.4	1	100	1000	1	0
120	2	4	N	N	f	1153.58	0	7	56	4	24	c	j	1287.39	1	1000	1000	0	0
120	2	5	N	N	f	586.29	0	7	56	3	24	c	j	552.57	1	100	100	0	0
120	2	6	N	N	f	519.82	0	4	24	9	56	c	n	1153.75	1	100	1000	0	0
120	2	7	P	P	d	636.23	1	2	56	8	24	i	j	436.95	1	1000	1000	1	0
120	2	8	P	P	d	386.09	1	8	24	4	56	i	n	719.74	1	1000	1000	0	0
120	2	9	P	P	d	786.64	1	9	24	3	56	i	n	536.67	1	100	100	0	0
120	2	10	P	P	d	502.95	1	2	24	9	56	c	n	653.81	1	1000	100	0	0
120	2	11	N	N	f	1001.68	0	4	24	9	56	c	n	886.39	1	1000	1000	1	0
120	2	12	P	P	d	870.13	1	9	24	3	56	i	j	1387.39	0	1000	100	1	0
120	2	13	N	N	f	1237.1	0	4	56	7	24	i	n	1453.7	1	100	100	1	1
120	2	14	N	N	f	1019.99	0	3	56	7	24	i	n	1587.92	1	100	1000	0	0
120	2	15	N	N	f	552.23	0	8	24	2	56	i	j	1002.83	1	100	1000	0	0
120	2	16	P	P	d	753.61	1	8	56	3	24	c	j	536.67	1	100	1000	1	0
120	2	17	N	N	f	569.44	0	2	24	7	56	c	n	821.33	1	1000	100	1	0
120	2	18	N	N	f	786.71	0	7	24	3	56	i	j	1070.18	1	1000	1000	0	0
120	2	19	N	N	f	836.62	0	9	56	2	24	c	j	586.74	1	100	1000	0	0
120	2	20	N	N	f	619.51	0	3	24	8	56	c	n	653.23	1	100	100	0	0
120	2	21	P	P	d	603.11	1	4	56	8	24	i	j	402.75	1	100	1000	1	0
120	2	22	P	P	d	486.07	1	3	24	7	56	c	n	386.99	1	100	1000	0	0
120	2	23	N	N	f	719.78	0	9	24	2	56	i	j	753.05	1	100	100	1	0
120	2	24	N	N	f	919.74	0	4	24	9	56	c	n	1153.45	1	1000	1000	0	0
120	2	25	N	N	f	837.64	0	8	24	2	56	i	j	803.9	1	100	100	0	0
120	2	26	P	P	d	718.25	1	4	56	7	24	i	j	536.59	1	100	100	1	0
120	2	27	P	P	d	403.45	1	7	24	2	56	i	n	436.01	1	100	1000	0	0
120	2	28	P	P	d	536.15	1	8	24	4	56	i	n	486.48	1	1000	100	0	0
120	2	29	P	P	d	418.88	1	8	56	3	24	c	j	400.58	1	100	100	0	0
120	2	30	N	N	f	602.99	0	4	24	9	56	c	n	870.12	1	100	1000	1	0
120	2	31	N	N	f	436.41	0	8	56	2	24	c	j	1120.88	1	1000	100	0	0
120	2	32	P	P	d	619.42	1	8	56	3	24	c	j	653.02	1	1000	1000	1	0
120	2	33	P	P	d	402.77	1	2	24	7	56	c	n	519.67	1	1000	1000	0	0
120	2	34	P	P	d	502.78	1	3	56	8	24	i	j	486.39	1	1000	1000	0	0
120	2	35	N	N	f	753.03	0	7	56	2	24	c	j	653.09	1	100	100	1	0
120	2	36	N	N	f	302.63	0	9	24	4	56	i	j	936.06	1	1000	100	0	0
120	2	37	P	P	f	586.34	1	9	24	2	56	i	n	3406.78	1	1000	1000	1	0
120	2	38	N	N	f	1368.46	0	9	24	3	56	i	j	2154.87	1	1000	1000	1	0
120	2	39	N	N	f	853.12	0	4	56	9	24	i	n	1003.3	1	1000	1000	0	0
120	2	40	P	P	d	585.53	1	2	24	8	56	c	n	419.9	1	1000	1000	1	0
120	2	41	N	N	f	635.9	0	3	56	8	24	i	n	870.09	1	1000	100	1	0
120	2	42	P	P	d	719.63	1	7	24	4	56	i	n	1254.04	1	100	100	1	0
120	2	43	N	N	f	569.78	0	9	56	3	24	c	j	904.4	1	1000	100	1	0
120	2	44	P	P	d	569.71	1	7	24	2	56	i	n	468.99	1	100	1000	1	0
120	2	45	P	P	d	869.89	1	7	56	3	24	c	j	636.03	1	100	1000	0	0
120	2	46	N	N	f	702.51	0	7	56	4	24	c	j	603.54	1	1000	1000	1	0
120	2	47	N	N	f	667.87	0	3	56	8	24	i	n	636.78	1	100	100	0	0
120	2	48	P	P	d	1220.68	1	4	24	7	56	c	n	970.69	1	100	1000	1	0
120	2	49	N	N	f	853.88	0	8	24	2	56	i	j	1070.23	1	100	1000	1	0
120	2	50	P	P	d	787.26	1	3	24	9	56	c	n	904.07	1	100	100	1	0
120	2	51	P	P	d	670.98	1	4	56	8	24	i	j	653.42	1	100	1000	0	0
120	2	52	P	P	d	319.57	1	9	56	2	24	c	j	770.2	1	1000	1000	0	0
120	2	53	P	P	d	342.2	1	4	56	8	24	i	j	1001.42	1	1000	100	0	0
120	2	54	N	N	f	992.96	0	3	24	9	56	c	n	671.85	1	100	100	1	0
120	2	55	P	P	d	837.1	1	7	56	2	24	c	j	1205.32	1	100	100	1	0
120	2	56	N	N	f	755.99	0	8	56	4	24	c	j	469.24	1	100	1000	1	0
120	2	57	P	P	d	753.63	1	3	56	7	24	i	j	1104.55	1	1000	100	1	0
120	2	58	N	N	f	603.49	0	4	56	9	24	i	n	1053.61	1	1000	1000	1	0
120	2	59	P	P	d	335.96	1	3	24	8	56	c	n	820.51	1	1000	100	1	0
120	2	60	P	P	f	452.96	1	8	56	2	24	c	j	869.99	1	1000	100	0	0
120	2	61	P	P	d	984.91	1	3	56	7	24	i	j	820.46	1	100	100	0	0
120	2	62	P	P	d	569.43	1	4	24	9	56	c	n	1103.46	1	100	100	0	0
120	2	63	N	N	f	453.16	0	9	24	2	56	i	j	619.78	1	1000	100	1	0
120	2	64	N	N	f	419.65	0	4	56	7	24	i	n	719.8	1	1000	100	0	0
120	2	65	N	N	f	385.71	0	2	24	8	56	c	n	1570.23	1	1000	100	0	0
120	3	1	N	N	f	802.83	0	3	56	9	24	i	n	1538.01	1	1000	1000	-1	0
120	3	2	N	N	f	652.77	0	4	24	9	56	c	n	1186.88	1	1000	100	0	0
120	3	3	N	N	f	553.02	0	8	24	2	56	i	j	801.3	1	1000	100	0	0
120	3	4	P	P	d	602.86	1	8	56	3	24	c	j	470.02	1	100	1000	1	0
120	3	5	P	P	d	369.41	1	7	56	4	24	c	j	486.79	1	1000	1000	0	0
120	3	6	P	P	d	617.71	1	3	56	9	24	i	j	653.47	1	100	100	0	0
120	3	7	P	P	d	402.48	1	4	24	9	56	c	n	436.49	1	1000	1000	0	0
120	3	8	P	P	d	769.41	1	7	24	3	56	i	n	452.47	1	100	100	0	0
120	3	9	N	N	f	519.49	0	9	56	2	24	c	j	535.48	1	1000	1000	1	0
120	3	10	P	P	d	869.81	1	4	56	7	24	i	n	436.67	0	100	100	1	0
120	3	11	P	P	d	836.56	1	2	56	7	24	i	j	718.13	1	1000	1000	0	1
120	3	12	N	N	f	569.89	0	4	24	8	56	c	n	668.97	1	1000	100	1	0
120	3	13	N	N	f	636.1	0	8	24	2	56	i	j	503.22	1	100	1000	0	0
120	3	14	N	N	f	319.38	0	8	24	4	56	i	j	670.21	1	1000	1000	0	0
120	3	15	N	N	f	502.57	0	3	24	7	56	c	n	951.78	1	100	1000	0	0
120	3	16	P	P	f	319.41	1	9	24	2	56	i	n	1654.45	1	1000	100	1	0
120	3	17	N	N	f	1103.84	0	8	24	4	56	i	j	2038.64	1	100	1000	1	0
120	3	18	P	P	d	802.96	1	8	24	2	56	i	n	1103.67	1	1000	1000	1	0
120	3	19	N	N	f	586.19	0	4	56	8	24	i	n	886.38	1	100	1000	1	0
120	3	20	N	N	f	1003.47	0	2	24	7	56	c	n	769.77	1	100	100	0	0
120	3	21	N	N	f	803.0	0	7	56	3	24	c	j	569.21	1	1000	1000	0	0
120	3	22	N	N	f	485.61	0	9	56	2	24	c	j	552.7	1	100	1000	0	0
120	3	23	N	N	f	467.35	0	9	56	4	24	c	j	703.69	1	1000	100	0	0
120	3	24	P	P	d	703.06	1	7	24	2	56	i	n	403.46	1	100	1000	1	0
120	3	25	P	P	d	402.86	1	3	56	8	24	i	j	586.49	1	100	1000	0	0
120	3	26	N	N	f	887.31	0	9	56	4	24	c	j	469.86	1	100	1000	1	0
120	3	27	P	P	d	652.54	1	2	24	7	56	c	n	1435.61	1	100	1000	1	0
120	3	28	N	N	f	719.04	0	8	56	4	24	c	j	2538.53	1	100	100	1	0
120	3	29	P	P	d	553.15	1	3	56	8	24	i	j	1437.55	1	1000	1000	1	0
120	3	30	P	P	d	753.07	1	7	24	2	56	i	n	1186.96	1	1000	100	0	0
120	3	31	N	N	f	584.34	0	4	24	9	56	c	n	854.06	1	1000	1000	1	0
120	3	32	P	P	d	686.5	1	2	56	7	24	i	j	1036.65	1	100	1000	1	0
120	3	33	P	P	d	1103.12	1	4	24	7	56	c	n	1003.57	1	1000	100	0	0
120	3	34	P	P	d	586.64	1	3	24	7	56	c	n	536.61	1	100	100	0	0
120	3	35	N	N	f	636.42	0	8	24	4	56	i	j	969.13	1	1000	1000	1	0
120	3	36	P	P	d	786.49	1	3	24	8	56	c	n	652.61	1	100	100	1	0
120	3	37	P	P	d	468.9	1	2	56	9	24	i	j	686.64	1	1000	100	0	0
120	3	38	N	N	f	703.18	0	8	56	3	24	c	j	1254.35	1	1000	100	1	0
120	3	39	P	P	f	503.05	1	8	24	4	56	i	n	1754.66	1	100	100	1	0
120	3	40	N	N	f	686.22	0	2	24	9	56	c	n	953.63	1	100	100	1	0
120	3	41	P	P	d	870.04	1	3	56	9	24	i	j	1003.91	1	1000	100	1	0
120	3	42	P	P	d	636.01	1	8	56	2	24	c	j	637.17	1	100	1000	0	0
120	3	43	N	N	f	1069.92	0	3	56	7	24	i	n	1386.99	1	1000	100	1	0
120	3	44	N	N	f	1036.62	0	8	24	2	56	i	j	820.02	1	100	100	0	0
120	3	45	P	P	d	820.19	1	8	56	4	24	c	j	1036.42	1	1000	1000	1	0
120	3	46	P	P	d	1054.58	1	9	56	3	24	c	j	458.48	1	100	100	0	0
120	3	47	P	P	d	437.58	1	2	24	7	56	c	n	504.48	1	100	1000	0	0
120	3	48	N	N	d	387.2	0	8	24	3	56	i	j	1356.82	1	100	100	1	0
120	3	49	N	N	f	604.24	0	2	56	8	24	i	n	2609.48	1	100	100	0	0
120	3	50	N	N	f	1505.46	0	3	24	7	56	c	n	2023.1	1	1000	1000	0	0
120	3	51	P	P	d	538.3	1	8	56	2	24	c	j	519.17	1	1000	100	1	0
120	3	52	P	P	d	469.6	1	7	56	4	24	c	j	420.01	1	1000	100	0	0
120	3	53	N	N	f	653.94	0	8	24	2	56	i	j	620.12	1	1000	100	1	0
120	3	54	N	N	f	987.14	0	9	56	4	24	c	j	1252.31	1	100	100	0	0
120	3	55	P	P	f	420.54	1	2	24	8	56	c	n	1187.38	1	1000	100	1	0
120	3	56	P	P	d	785.77	1	9	24	4	56	i	n	2288.81	1	100	1000	0	0
120	3	57	N	N	f	653.21	0	3	56	9	24	i	n	903.1	1	1000	1000	1	0
120	3	58	N	N	f	2152.59	0	4	56	9	24	i	n	636.3	1	1000	1000	0	0
120	3	59	P	P	d	636.36	1	2	24	9	56	c	n	887.27	1	1000	1000	1	0
120	3	60	N	N	f	786.69	0	4	56	8	24	i	n	970.6	1	100	100	1	0
120	3	61	N	N	f	669.74	0	2	56	9	24	i	n	669.82	1	100	1000	0	0
120	3	62	N	N	f	654.0	0	3	56	8	24	i	n	1370.79	1	1000	100	0	0
120	3	63	P	P	d	653.37	1	7	56	4	24	c	j	435.44	1	100	100	1	0
120	3	64	P	P	d	386.99	1	8	24	2	56	i	n	452.95	1	1000	1000	0	0
120	3	65	N	N	f	736.17	0	4	24	7	56	c	n	854.54	1	100	1000	1	0
120	4	1	N	N	f	2237.78	0	8	56	4	24	c	j	984.35	1	1000	100	-1	0
120	4	2	P	P	d	803.43	1	8	24	3	56	i	n	1170.98	1	1000	1000	1	0
120	4	3	N	N	f	819.64	0	4	24	9	56	c	n	867.8	1	100	1000	1	0
120	4	4	P	P	d	502.98	1	3	56	7	24	i	j	867.72	1	100	1000	1	0
120	4	5	N	N	f	452.78	0	9	56	2	24	c	j	685.88	1	100	1000	1	0
120	4	6	P	P	d	569.73	1	8	24	4	56	i	n	901.74	1	100	1000	1	0
120	4	7	N	N	f	336.08	0	9	24	3	56	i	j	619.86	1	1000	1000	1	0
120	4	8	N	N	f	536.25	0	9	56	4	24	c	j	1153.8	1	1000	100	0	0
120	4	9	P	P	d	553.15	1	2	24	9	56	c	n	834.69	1	1000	100	1	0
120	4	10	N	N	f	502.93	0	8	56	4	24	c	j	837.14	1	100	100	1	0
120	4	11	P	P	d	519.44	1	8	56	2	24	c	j	1504.05	1	100	1000	1	0
120	4	12	P	P	d	602.38	1	4	56	8	24	i	j	686.58	1	1000	1000	0	0
120	4	13	N	N	f	687.3	0	2	56	8	24	i	n	603.38	1	100	100	1	0
120	4	14	P	P	d	586.02	1	4	56	9	24	i	j	669.56	1	100	100	1	0
120	4	15	P	P	d	803.17	1	7	56	2	24	c	j	602.67	1	100	100	0	0
120	4	16	P	P	d	719.11	1	8	56	3	24	c	j	753.59	1	1000	100	0	0
120	4	17	P	P	d	602.99	1	9	24	2	56	i	n	1070.2	1	1000	1000	0	0
120	4	18	N	N	f	686.36	0	8	24	4	56	i	j	634.96	1	100	100	1	0
120	4	19	P	P	d	536.41	1	2	24	9	56	c	n	620.47	1	100	100	1	0
120	4	20	N	N	f	636.41	0	8	56	3	24	c	j	819.88	1	1000	100	1	0
120	4	21	N	N	f	686.61	0	4	56	8	24	i	n	620.01	1	100	100	0	0
120	4	22	P	P	d	753.54	1	7	24	3	56	i	n	1070.33	1	100	100	1	0
120	4	23	P	P	d	2137.36	1	9	24	4	56	i	n	1003.55	1	1000	100	0	0
120	4	24	P	P	d	636.0	1	8	56	2	24	c	j	970.72	1	1000	1000	0	0
120	4	25	N	N	f	536.61	0	4	24	9	56	c	n	502.62	1	1000	100	1	0
120	4	26	N	N	f	469.31	0	9	24	3	56	i	j	1754.52	1	100	100	0	0
120	4	27	N	N	f	502.66	0	9	24	2	56	i	j	670.44	1	100	1000	0	0
120	4	28	N	N	f	386.0	0	4	56	7	24	i	n	1069.94	1	1000	100	0	0
120	4	29	P	P	f	383.9	1	2	56	8	24	i	j	1153.86	1	1000	100	1	0
120	4	30	P	P	d	685.82	1	3	56	8	24	i	j	486.62	1	100	1000	0	0
120	4	31	P	P	d	552.9	1	8	56	2	24	c	j	519.92	1	100	1000	0	0
120	4	32	N	N	d	419.73	0	9	24	4	56	i	j	737.16	1	100	1000	1	0
120	4	33	P	P	d	786.11	1	7	24	3	56	i	n	4724.67	1	1000	100	1	0
120	4	34	P	P	d	1021.25	1	4	56	9	24	i	j	1021.89	1	100	100	0	0
120	4	35	N	N	f	770.88	0	8	56	3	24	c	j	804.19	1	1000	1000	1	0
120	4	36	N	N	f	554.77	0	2	24	7	56	c	n	1238.55	1	1000	100	0	0
120	4	37	N	N	f	487.32	0	3	24	7	56	c	n	837.31	1	1000	1000	0	0
120	4	38	P	P	d	637.81	1	7	56	4	24	c	j	770.39	1	100	100	1	0
120	4	39	P	P	d	469.63	1	9	24	2	56	i	n	601.34	1	100	100	0	0
120	4	40	N	N	f	587.4	0	4	56	8	24	i	n	937.07	1	1000	1000	1	0
120	4	41	N	N	f	769.77	0	3	56	9	24	i	n	1104.12	1	1000	1000	0	0
120	4	42	N	N	f	2088.68	0	9	56	2	24	c	j	1087.56	1	100	100	0	0
120	4	43	P	P	d	686.66	1	4	24	7	56	c	n	904.05	1	100	1000	1	0
120	4	44	N	N	f	535.94	0	7	24	2	56	i	j	1270.62	1	1000	100	1	0
120	4	45	N	N	f	1101.5	0	8	56	4	24	c	j	586.16	1	100	1000	0	0
120	4	46	P	P	d	703.34	1	8	56	2	24	c	j	1035.93	1	1000	1000	1	0
120	4	47	P	P	d	819.45	1	3	24	7	56	c	n	519.86	1	100	100	0	0
120	4	48	P	P	d	469.43	1	2	24	7	56	c	n	536.12	1	100	1000	0	0
120	4	49	P	P	d	335.86	1	3	24	7	56	c	n	686.22	1	1000	100	0	0
120	4	50	P	P	d	686.21	1	9	24	2	56	i	n	686.73	1	100	1000	0	0
120	4	51	N	N	f	720.02	0	4	56	7	24	i	n	1136.73	1	1000	100	1	0
120	4	52	N	N	f	1003.18	0	9	24	3	56	i	j	920.58	1	1000	1000	0	0
120	4	53	N	N	f	519.96	0	4	24	9	56	c	n	770.03	1	100	1000	0	0
120	4	54	N	N	f	636.23	0	7	56	2	24	c	j	684.69	1	1000	1000	0	0
120	4	55	P	P	d	653.13	1	8	56	3	24	c	j	720.17	1	1000	100	1	0
120	4	56	N	N	f	502.95	0	2	24	8	56	c	n	1103.27	1	1000	1000	1	0
120	4	57	N	N	f	686.47	0	3	56	9	24	i	n	703.57	1	100	1000	0	0
120	4	58	N	N	f	803.18	0	7	24	2	56	i	j	770.43	1	1000	100	0	0
120	4	59	P	P	d	786.14	1	3	56	9	24	i	j	1419.89	1	1000	1000	1	0
120	4	60	P	P	d	669.77	1	4	56	8	24	i	j	1753.92	1	1000	100	0	0
120	4	61	P	P	d	702.56	1	2	24	9	56	c	n	1220.95	1	1000	1000	0	0
120	4	62	N	N	f	620.4	0	3	56	7	24	i	n	836.86	1	100	1000	1	0
120	4	63	N	N	f	686.37	0	2	24	8	56	c	n	553.31	1	100	100	0	0
120	4	64	P	P	d	603.3	1	4	24	9	56	c	n	836.72	1	1000	1000	1	0
120	4	65	N	N	f	687.42	0	3	24	7	56	c	n	1287.77	1	100	100	1	0
120	5	1	P	P	d	803.29	1	7	56	3	24	c	j	736.63	1	100	100	-1	0
120	5	2	N	N	f	553.4	0	2	56	8	24	i	n	934.56	1	1000	1000	1	0
120	5	3	N	N	f	852.51	0	4	24	7	56	c	n	636.41	1	1000	1000	0	0
120	5	4	P	P	d	486.21	1	9	24	3	56	i	n	636.45	1	1000	1000	1	0
120	5	5	N	N	f	569.26	0	9	24	4	56	i	j	703.06	1	1000	1000	1	0
120	5	6	P	P	d	617.92	1	2	56	9	24	i	j	1103.74	1	100	100	1	0
120	5	7	N	N	f	753.23	0	8	24	4	56	i	j	652.82	1	100	100	1	0
120	5	8	N	N	f	802.68	0	8	24	3	56	i	j	636.54	1	100	100	0	0
120	5	9	P	P	d	586.51	1	7	56	2	24	c	j	619.14	1	100	1000	1	0
120	5	10	P	P	d	736.09	1	4	56	8	24	i	j	436.33	1	1000	1000	0	0
120	5	11	N	N	f	619.83	0	8	56	2	24	c	j	987.22	1	100	100	1	0
120	5	12	P	P	d	503.2	1	8	24	4	56	i	n	986.12	1	1000	100	1	0
120	5	13	P	P	d	753.4	1	7	24	2	56	i	n	1538.02	1	1000	1000	0	0
120	5	14	P	P	d	568.79	1	3	24	7	56	c	n	619.67	1	1000	100	0	0
120	5	15	N	N	f	703.34	0	4	56	9	24	i	n	702.99	1	1000	100	1	0
120	5	16	P	P	d	1003.85	1	7	24	3	56	i	n	502.42	1	100	100	1	0
120	5	17	N	N	f	969.69	0	4	24	8	56	c	n	687.21	1	1000	100	1	0
120	5	18	N	N	f	1002.74	0	2	24	9	56	c	n	1270.35	1	1000	100	0	0
120	5	19	N	N	f	953.44	0	4	24	7	56	c	n	1020.76	1	100	100	0	0
120	5	20	P	P	f	803.47	1	8	56	2	24	c	j	2403.48	1	1000	100	1	0
120	5	21	P	P	d	736.43	1	8	24	3	56	i	n	736.58	1	100	100	0	0
120	5	22	N	N	f	586.31	0	9	56	2	24	c	j	937.48	1	1000	100	1	0
120	5	23	N	N	f	469.5	0	4	56	8	24	i	n	686.53	1	100	1000	0	0
120	5	24	P	P	d	419.47	1	2	56	7	24	i	j	702.81	1	1000	1000	1	0
120	5	25	N	N	f	669.29	0	3	24	8	56	c	n	770.29	1	100	100	1	0
120	5	26	P	P	d	536.72	1	2	24	8	56	c	n	553.23	1	100	1000	1	0
120	5	27	P	P	d	719.31	1	4	24	8	56	c	n	419.35	1	100	1000	0	0
120	5	28	P	P	d	436.45	1	9	56	2	24	c	j	586.99	1	100	1000	0	0
120	5	29	P	P	d	352.91	1	3	24	7	56	c	n	537.3	1	1000	1000	0	0
120	5	30	N	N	f	603.5	0	4	56	9	24	i	n	571.78	1	100	1000	1	0
120	5	31	P	P	d	722.76	1	7	56	2	24	c	j	1121.62	1	1000	1000	1	0
120	5	32	N	N	f	903.88	0	3	56	7	24	i	n	1469.36	1	100	100	1	0
120	5	33	N	N	f	702.89	0	2	56	9	24	i	n	585.35	1	1000	100	0	0
120	5	34	P	P	d	737.29	1	3	24	7	56	c	n	1353.68	1	100	100	1	0
120	5	35	P	P	d	553.04	1	2	56	9	24	i	j	887.76	1	100	100	0	0
120	5	36	P	P	d	404.67	1	8	24	4	56	i	n	520.02	1	100	1000	0	0
120	5	37	P	P	d	337.75	1	8	56	3	24	c	j	770.53	1	1000	100	0	0
120	5	38	P	P	d	552.83	1	4	56	9	24	i	j	652.59	1	1000	100	0	0
120	5	39	N	N	f	653.25	0	8	24	3	56	i	j	603.56	1	100	1000	1	0
120	5	40	N	N	f	452.42	0	2	24	9	56	c	n	452.1	1	100	1000	0	0
120	5	41	N	N	f	1320.84	0	7	56	3	24	c	j	534.79	1	100	1000	0	0
120	5	42	P	P	d	635.78	1	4	24	7	56	c	n	819.78	1	1000	100	1	0
120	5	43	P	P	d	754.57	1	9	56	3	24	c	j	586.6	1	100	100	0	0
120	5	44	P	P	d	452.8	1	2	56	7	24	i	j	502.9	1	100	1000	0	0
120	5	45	N	N	f	1036.3	0	8	56	3	24	c	j	803.86	1	100	1000	1	0
120	5	46	N	N	f	1554.21	0	7	24	2	56	i	j	1220.98	1	1000	100	0	0
120	5	47	P	P	d	603.71	1	7	56	3	24	c	j	402.63	1	100	100	1	0
120	5	48	N	N	f	686.59	0	8	56	4	24	c	j	1303.74	1	1000	1000	1	0
120	5	49	N	N	f	686.55	0	2	56	8	24	i	n	1203.95	1	100	100	0	0
120	5	50	N	N	f	719.82	0	7	56	4	24	c	j	719.71	1	1000	100	0	0
120	5	51	N	N	f	520.63	0	7	56	3	24	c	j	670.22	1	100	100	0	0
120	5	52	P	P	d	452.9	1	4	24	8	56	c	n	520.32	1	1000	1000	1	0
120	5	53	N	N	f	636.21	0	8	24	3	56	i	j	770.39	1	1000	100	1	0
120	5	54	N	N	f	636.39	0	9	24	4	56	i	j	752.68	1	100	1000	0	0
120	5	55	P	P	d	619.73	1	2	56	9	24	i	j	603.57	1	100	1000	1	0
120	5	56	N	N	f	620.18	0	3	24	8	56	c	n	438.02	1	100	1000	1	0
120	5	57	N	N	f	436.28	0	2	56	7	24	i	n	836.8	1	1000	1000	0	0
120	5	58	N	N	f	584.12	0	8	56	3	24	c	j	517.07	1	1000	1000	0	0
120	5	59	P	P	d	636.21	1	7	24	2	56	i	n	634.66	1	100	1000	1	0
120	5	60	P	P	d	320.95	1	9	24	4	56	i	n	970.82	1	1000	100	0	0
120	5	61	P	P	d	602.33	1	3	24	7	56	c	n	570.55	1	100	100	0	0
120	5	62	N	N	f	603.09	0	2	24	8	56	c	n	453.61	1	1000	1000	1	0
120	5	63	N	N	f	586.41	0	8	24	4	56	i	j	1285.26	1	1000	1000	0	0
120	5	64	P	P	d	803.1	1	3	56	9	24	i	j	853.16	1	1000	100	1	0
120	5	65	P	P	d	386.01	1	9	56	4	24	c	j	619.61	1	1000	1000	0	0
120	6	1	P	P	d	2836.87	1	7	24	4	56	i	n	519.62	1	100	1000	-1	0
120	6	2	P	P	d	386.38	1	2	24	8	56	c	n	619.58	1	100	1000	0	0
120	6	3	N	N	f	652.44	0	4	24	9	56	c	n	1270.53	1	1000	100	1	0
120	6	4	N	N	f	385.92	0	8	56	3	24	c	j	419.99	1	1000	100	0	0
120	6	5	N	N	f	486.7	0	9	56	2	24	c	j	403.42	1	100	1000	0	0
120	6	6	N	N	f	385.98	0	4	24	8	56	c	n	536.72	1	1000	100	0	0
120	6	7	P	P	d	703.14	1	3	24	8	56	c	n	1304.13	1	100	100	1	0
120	6	8	P	P	d	769.63	1	8	24	4	56	i	n	736.56	1	100	1000	0	0
120	6	9	N	N	d	35.38	0	9	24	3	56	i	j	2120.67	1	1000	100	1	0
120	6	10	P	P	d	669.6	1	7	56	2	24	c	j	403.3	1	1000	1000	1	0
120	6	11	P	P	d	686.08	1	4	56	8	24	i	j	703.69	1	1000	100	0	0
120	6	12	N	N	f	803.28	0	3	56	9	24	i	n	819.78	1	100	1000	1	0
120	6	13	P	P	d	636.47	1	7	24	2	56	i	n	834.39	1	1000	100	1	0
120	6	14	P	P	d	669.71	1	3	24	8	56	c	n	534.19	1	100	100	0	0
120	6	15	N	N	f	770.13	0	9	24	2	56	i	j	669.86	1	100	1000	1	0
120	6	16	N	N	f	603.23	0	9	24	4	56	i	j	654.04	1	1000	100	0	0
120	6	17	N	N	f	452.86	0	2	56	9	24	i	n	586.65	1	100	100	0	0
120	6	18	P	P	d	619.98	1	9	24	3	56	i	n	519.95	1	100	1000	1	0
120	6	19	N	N	f	687.48	0	8	56	2	24	c	j	487.45	1	100	1000	1	0
120	6	20	P	P	d	403.95	1	7	56	3	24	c	j	688.71	1	1000	100	1	0
120	6	21	N	N	f	1087.24	0	7	56	2	24	c	j	890.22	1	100	100	1	0
120	6	22	P	P	d	572.06	1	8	24	3	56	i	n	1356.35	1	1000	1000	1	0
120	6	23	N	N	f	753.26	0	4	56	7	24	i	n	854.11	1	100	100	1	0
120	6	24	N	N	f	837.85	0	3	56	8	24	i	n	1621.84	1	100	1000	0	0
120	6	25	N	N	f	636.08	0	2	24	8	56	c	n	968.54	1	100	1000	0	0
120	6	26	P	P	d	1020.15	1	3	56	8	24	i	j	1205.18	1	1000	1000	1	0
120	6	27	N	N	f	669.76	0	2	24	7	56	c	n	537.49	1	100	1000	1	0
120	6	28	P	P	d	886.74	1	9	56	3	24	c	j	386.35	1	100	1000	1	0
120	6	29	P	P	d	685.71	1	2	56	8	24	i	j	1754.62	1	1000	1000	0	0
120	6	30	P	P	d	584.47	1	8	56	3	24	c	j	535.67	1	100	1000	0	0
120	6	31	N	N	f	469.38	0	4	24	7	56	c	n	553.0	1	1000	1000	1	0
120	6	32	N	N	f	702.64	0	7	56	3	24	c	j	603.34	1	1000	1000	0	0
120	6	33	P	P	d	617.76	1	7	24	4	56	i	n	519.26	1	100	100	1	0
120	6	34	P	P	d	352.4	1	2	24	9	56	c	n	419.91	1	1000	100	0	0
120	6	35	N	N	f	619.18	0	3	24	9	56	c	n	552.65	1	100	100	1	0
120	6	36	P	P	d	653.09	1	4	56	8	24	i	j	1855.11	1	100	100	1	0
120	6	37	P	P	d	552.61	1	8	56	3	24	c	j	569.59	1	100	100	0	0
120	6	38	N	N	f	536.73	0	4	56	7	24	i	n	870.23	1	1000	100	1	0
120	6	39	P	P	d	553.06	1	9	56	2	24	c	j	720.82	1	100	100	1	0
120	6	40	P	P	d	617.42	1	3	24	7	56	c	n	552.87	1	1000	1000	0	0
120	6	41	P	P	d	519.31	1	7	24	4	56	i	n	569.3	1	100	100	0	0
120	6	42	N	N	f	786.51	0	3	56	7	24	i	n	553.06	1	1000	1000	1	0
120	6	43	N	N	f	786.58	0	8	24	4	56	i	j	653.49	1	100	100	0	0
120	6	44	N	N	f	469.71	0	9	56	3	24	c	j	536.57	1	100	100	0	0
120	6	45	P	P	d	402.99	1	2	56	7	24	i	j	435.23	1	1000	100	1	0
120	6	46	P	P	d	536.03	1	9	56	3	24	c	j	486.16	1	1000	100	0	0
120	6	47	N	N	f	569.64	0	8	56	2	24	c	j	836.82	1	1000	1000	1	0
120	6	48	P	P	d	619.7	1	4	56	8	24	i	j	1153.33	1	100	1000	1	0
120	6	49	P	P	d	719.84	1	9	24	2	56	i	n	553.43	1	1000	100	0	0
120	6	50	P	P	d	719.56	1	7	56	4	24	c	j	853.08	1	1000	1000	0	0
120	6	51	N	N	f	636.44	0	8	24	3	56	i	j	669.29	1	100	100	1	0
120	6	52	N	N	f	703.37	0	2	56	7	24	i	n	938.1	1	1000	100	0	0
120	6	53	N	N	f	619.97	0	4	24	9	56	c	n	584.77	1	1000	1000	0	0
120	6	54	N	N	f	586.15	0	3	24	8	56	c	n	570.13	1	100	100	0	0
120	6	55	N	N	f	469.36	0	2	56	9	24	i	n	519.21	1	1000	1000	0	0
120	6	56	P	P	d	686.5	1	4	24	7	56	c	n	803.69	1	1000	1000	1	0
120	6	57	P	P	d	419.37	1	2	56	9	24	i	j	370.08	1	100	100	0	0
120	6	58	N	N	d	333.85	0	7	56	3	24	c	j	1119.93	1	1000	100	1	0
120	6	59	P	P	d	1270.5	1	4	24	9	56	c	n	1187.72	1	100	1000	1	0
120	6	60	P	P	d	85.92	1	3	56	8	24	i	n	1053.49	0	100	1000	0	0
120	6	61	P	P	d	603.07	1	8	24	4	56	i	n	703.74	1	1000	1000	0	1
120	6	62	N	N	f	586.31	0	7	24	3	56	i	j	1003.03	1	1000	1000	1	0
120	6	63	N	N	f	736.36	0	8	24	4	56	i	j	1687.48	1	100	1000	0	0
120	6	64	N	N	f	452.23	0	9	24	3	56	i	j	837.34	1	1000	1000	0	0
120	6	65	P	P	d	703.3	1	4	24	8	56	c	n	804.03	1	1000	100	1	0
