subj	block	trial	task_cue	task	choice_resp	choiceRT	choice_acc	topnum	topsize	botnum	botsize	cong	task_resp	taskRT	task_acc	RSI	CSI	altRep	E1
124	1	1	N	N	f	569.62	0	7	24	4	56	i	j	837.22	1	1000	1000	-1	0
124	1	2	N	N	f	753.12	0	2	24	7	56	c	n	553.56	1	1000	1000	0	0
124	1	3	P	P	f	553.05	1	3	56	8	24	i	n	1736.94	0	1000	100	1	0
124	1	4	P	P	d	436.27	1	8	56	4	24	c	j	903.86	1	1000	1000	0	1
124	1	5	P	P	d	869.99	1	3	24	7	56	c	n	600.92	1	100	1000	0	0
124	1	6	N	N	f	434.16	0	2	24	8	56	c	n	820.83	1	1000	1000	1	0
124	1	7	N	N	f	702.53	0	4	56	9	24	i	n	803.28	1	100	100	0	0
124	1	8	N	N	f	552.85	0	8	24	3	56	i	j	619.73	1	100	100	0	0
124	1	9	N	N	f	486.03	0	2	56	8	24	i	n	585.78	1	100	1000	0	0
124	1	10	N	N	f	552.65	0	4	24	7	56	c	n	720.65	1	1000	100	0	0
124	1	11	N	N	f	704.34	0	3	24	8	56	c	n	486.75	1	100	1000	0	0
124	1	12	N	N	f	470.13	0	4	56	9	24	i	n	618.12	1	1000	100	0	0
124	1	13	P	P	d	720.35	1	3	24	9	56	c	n	570.36	1	100	100	1	0
124	1	14	N	N	f	587.38	0	9	24	2	56	i	j	754.06	1	100	100	1	0
124	1	15	P	P	d	703.15	1	9	24	3	56	i	j	587.51	0	100	1000	1	0
124	1	16	N	N	f	574.06	0	7	24	2	56	i	j	1071.7	1	1000	100	1	1
124	1	17	P	P	d	609.14	1	9	56	4	24	c	j	472.53	1	100	1000	1	0
124	1	18	P	P	d	1102.08	1	8	56	2	24	c	j	503.97	1	100	1000	0	0
124	1	19	N	N	f	853.41	0	7	24	3	56	i	j	837.0	1	100	1000	1	0
124	1	20	P	P	d	552.63	1	8	56	4	24	c	j	638.11	1	1000	1000	1	0
124	1	21	N	N	f	670.16	0	3	24	9	56	c	n	601.17	1	100	1000	1	0
124	1	22	N	N	d	703.5	0	7	24	2	56	i	n	737.24	0	1000	1000	0	0
124	1	23	P	P	d	817.62	1	4	24	8	56	c	n	687.22	1	1000	1000	1	1
124	1	24	N	N	f	636.5	0	2	56	7	24	i	n	870.49	1	100	1000	1	0
124	1	25	P	P	d	936.54	1	7	24	4	56	i	n	1787.95	1	100	100	1	0
124	1	26	N	N	f	653.23	0	3	24	9	56	c	j	1037.52	0	1000	100	1	0
124	1	27	N	N	f	1703.58	0	9	24	2	56	i	j	603.36	1	100	1000	0	1
124	1	28	P	P	d	685.5	1	9	24	4	56	i	n	1253.88	1	1000	100	1	0
124	1	29	P	P	d	1170.1	1	3	24	7	56	c	n	653.69	1	100	100	0	0
124	1	30	P	P	d	486.19	1	7	56	2	24	c	j	620.1	1	100	100	0	0
124	1	31	P	P	d	552.71	1	3	56	8	24	i	n	552.98	0	100	100	0	0
124	1	32	N	N	f	619.46	0	4	56	9	24	i	n	920.78	1	1000	100	1	1
124	1	33	N	N	f	419.41	0	7	56	2	24	c	j	802.98	1	1000	100	0	0
124	1	34	P	P	d	953.62	1	3	24	9	56	c	n	637.0	1	100	1000	1	0
124	1	35	N	N	f	653.31	0	8	56	4	24	c	j	635.97	1	1000	1000	1	0
124	1	36	N	N	f	769.74	0	7	56	3	24	c	j	619.73	1	100	100	0	0
124	1	37	N	N	f	453.11	0	4	56	8	24	i	n	586.15	1	1000	1000	0	0
124	1	38	N	N	f	1286.76	0	9	56	2	24	c	j	502.81	1	1000	1000	0	0
124	1	39	P	P	d	920.28	1	4	56	8	24	i	n	569.89	0	100	1000	1	0
124	1	40	N	N	f	1036.37	0	2	56	8	24	i	n	736.3	1	1000	1000	1	1
124	1	41	P	P	d	736.51	1	4	56	8	24	i	j	1086.76	1	100	100	1	0
124	1	42	N	N	f	753.12	0	8	24	2	56	i	j	1604.02	1	1000	1000	1	0
124	1	43	P	P	d	669.91	1	7	56	3	24	c	j	734.45	1	100	100	1	0
124	1	44	P	P	d	886.4	1	2	56	8	24	i	j	901.69	1	100	1000	0	0
124	1	45	P	P	d	536.43	1	3	24	7	56	c	n	669.52	1	1000	1000	0	0
124	1	46	P	P	d	452.44	1	2	56	7	24	i	j	1120.53	1	1000	100	0	0
124	1	47	P	P	d	636.29	1	4	24	8	56	c	n	702.08	1	1000	100	0	0
124	1	48	P	P	d	519.58	1	7	24	3	56	i	n	903.64	1	100	1000	0	0
124	1	49	N	N	f	652.62	0	7	56	2	24	c	j	870.58	1	100	100	1	0
124	1	50	N	N	f	1170.22	0	3	24	8	56	c	n	553.45	1	100	100	0	0
124	1	51	P	P	d	519.19	1	8	24	4	56	i	n	820.43	1	1000	1000	1	0
124	1	52	P	P	d	886.49	1	8	24	3	56	i	n	1087.25	1	100	100	0	0
124	1	53	N	N	f	969.93	0	2	56	9	24	i	n	1253.87	1	100	100	1	0
124	1	54	N	N	f	619.75	0	9	56	4	24	c	j	702.41	1	100	1000	0	0
124	1	55	P	P	d	719.77	1	2	24	9	56	c	n	1886.18	1	1000	100	1	0
124	1	56	P	P	d	571.02	1	4	56	9	24	i	j	852.87	1	1000	1000	0	0
124	1	57	P	P	d	803.21	1	7	24	3	56	i	n	553.29	1	1000	100	0	0
124	1	58	P	P	d	802.67	1	9	24	2	56	i	n	536.19	1	1000	1000	0	0
124	1	59	N	N	f	820.33	0	4	24	7	56	c	n	1320.14	1	100	100	1	0
124	1	60	P	P	d	653.11	1	2	56	9	24	i	j	834.96	1	1000	1000	1	0
124	1	61	P	P	d	602.92	1	7	56	4	24	c	j	653.22	1	1000	100	0	0
124	1	62	N	N	f	620.12	0	7	56	3	24	c	j	702.89	1	1000	100	1	0
124	1	63	P	P	d	886.88	1	7	56	2	24	c	j	803.24	1	1000	100	1	0
124	1	64	N	N	f	703.36	0	8	56	4	24	c	j	770.04	1	100	1000	1	0
124	1	65	N	N	d	519.11	0	9	24	3	56	i	n	687.0	0	1000	100	0	0
124	2	1	P	P	d	836.68	1	4	24	8	56	c	n	587.21	1	100	1000	-1	0
124	2	2	N	N	f	686.52	0	9	56	3	24	c	j	653.65	1	100	100	1	0
124	2	3	N	N	f	1052.68	0	9	24	4	56	i	j	1037.23	1	1000	100	0	0
124	2	4	N	N	f	569.62	0	7	56	2	24	c	j	652.69	1	100	100	0	0
124	2	5	N	N	f	419.3	0	8	56	4	24	c	j	586.2	1	100	1000	0	0
124	2	6	N	N	f	535.9	0	2	24	9	56	c	n	737.23	1	1000	1000	0	0
124	2	7	P	P	d	719.88	1	9	24	4	56	i	n	1152.05	1	100	1000	1	0
124	2	8	P	P	d	570.07	1	9	56	3	24	c	j	603.36	1	1000	100	0	0
124	2	9	N	N	f	703.12	0	2	24	7	56	c	n	1172.26	1	1000	100	1	0
124	2	10	N	N	f	621.12	0	8	24	4	56	i	j	653.74	1	100	100	0	0
124	2	11	P	P	d	687.64	1	2	56	8	24	i	j	1118.54	1	1000	100	1	0
124	2	12	P	P	d	520.27	1	7	56	4	24	c	j	788.63	1	1000	1000	0	0
124	2	13	P	P	d	656.92	1	7	24	2	56	i	n	721.17	1	100	100	0	0
124	2	14	N	N	f	506.54	0	8	56	3	24	c	j	637.46	1	1000	1000	1	0
124	2	15	N	N	f	402.75	0	7	56	2	24	c	j	553.22	1	1000	1000	0	0
124	2	16	P	P	d	1004.12	1	3	56	8	24	i	n	720.9	0	100	1000	1	0
124	2	17	P	P	d	519.33	1	8	24	2	56	i	n	603.51	1	1000	100	0	1
124	2	18	N	N	f	804.17	0	4	56	7	24	i	n	1670.98	1	100	1000	1	0
124	2	19	N	N	f	519.88	0	3	24	9	56	c	n	820.79	1	100	1000	0	0
124	2	20	P	P	d	954.41	1	2	24	9	56	c	n	1520.84	1	1000	1000	1	0
124	2	21	P	P	d	486.42	1	4	56	9	24	i	j	753.43	1	100	1000	0	0
124	2	22	P	P	d	586.27	1	2	24	8	56	c	n	603.62	1	1000	100	0	0
124	2	23	N	N	f	736.69	0	4	56	7	24	i	n	1320.79	1	1000	1000	1	0
124	2	24	P	P	d	686.65	1	3	24	7	56	c	n	936.9	1	100	1000	1	0
124	2	25	N	N	f	869.98	0	8	24	4	56	i	j	2021.7	1	100	100	1	0
124	2	26	P	P	d	619.43	1	8	56	2	24	c	j	769.9	1	1000	100	1	0
124	2	27	N	N	f	870.14	0	3	56	7	24	i	n	836.74	1	100	100	1	0
124	2	28	N	N	f	869.98	0	7	56	2	24	c	j	703.7	1	1000	100	0	0
124	2	29	P	P	d	819.79	1	4	24	7	56	c	n	1004.06	1	1000	100	1	0
124	2	30	P	P	d	686.7	1	9	24	3	56	i	n	1554.45	1	1000	1000	0	0
124	2	31	N	N	f	802.62	0	9	56	4	24	c	j	836.01	1	1000	100	1	0
124	2	32	P	P	d	936.57	1	9	24	2	56	i	n	1020.35	1	1000	1000	1	0
124	2	33	P	P	d	786.01	1	7	56	3	24	c	j	702.98	1	100	100	0	0
124	2	34	N	N	f	603.35	0	8	24	4	56	i	j	937.34	1	1000	1000	1	0
124	2	35	P	P	d	787.03	1	2	56	9	24	i	j	1304.4	1	1000	1000	1	0
124	2	36	P	P	d	786.98	1	4	24	9	56	c	n	602.87	1	100	1000	0	0
124	2	37	P	P	d	703.34	1	8	24	2	56	i	n	1086.05	1	100	1000	0	0
124	2	38	P	P	d	1170.49	1	8	56	3	24	c	j	686.68	1	100	1000	0	0
124	2	39	P	P	d	1287.19	1	4	24	8	56	c	n	585.96	1	100	100	0	0
124	2	40	P	P	d	736.32	1	2	56	8	24	i	j	569.5	1	100	100	0	0
124	2	41	N	N	f	686.74	0	3	24	8	56	c	n	735.73	1	100	100	1	0
124	2	42	N	N	f	886.91	0	9	24	2	56	i	j	1370.66	1	1000	1000	0	0
124	2	43	N	N	f	485.73	0	4	24	9	56	c	n	720.35	1	100	100	0	0
124	2	44	N	N	f	500.76	0	3	56	7	24	i	n	1137.2	1	100	1000	0	0
124	2	45	P	P	d	886.78	1	9	24	2	56	i	n	1070.15	1	100	100	1	0
124	2	46	N	N	d	452.73	0	9	56	3	24	c	j	434.44	1	100	1000	1	0
124	2	47	P	P	d	903.93	1	8	56	4	24	c	j	937.36	1	1000	1000	1	0
124	2	48	N	N	f	569.85	0	7	24	3	56	i	j	1086.93	1	1000	100	1	0
124	2	49	P	P	d	1404.23	1	4	56	8	24	i	j	1337.35	1	100	100	1	0
124	2	50	N	N	f	869.79	0	3	24	8	56	c	n	753.42	1	100	1000	1	0
124	2	51	N	N	f	1254.06	0	2	56	9	24	i	n	736.48	1	1000	100	0	0
124	2	52	P	P	d	619.5	1	4	24	8	56	c	n	1869.83	1	100	100	1	0
124	2	53	P	P	d	702.99	1	3	24	8	56	c	n	586.0	1	1000	1000	0	0
124	2	54	P	P	d	752.55	1	4	56	8	24	i	j	820.09	1	1000	100	0	0
124	2	55	P	P	d	786.79	1	3	56	8	24	i	j	1037.2	1	1000	1000	0	0
124	2	56	N	N	f	802.77	0	4	56	7	24	i	n	3005.97	1	1000	100	1	0
124	2	57	N	N	f	586.1	0	3	56	8	24	i	n	669.49	1	100	100	0	0
124	2	58	P	P	d	669.34	1	7	56	2	24	c	j	1504.09	1	100	1000	1	0
124	2	59	N	N	f	1304.78	0	8	24	4	56	i	j	1204.05	1	100	1000	1	0
124	2	60	N	N	f	686.46	0	3	56	9	24	i	n	603.36	1	1000	1000	0	0
124	2	61	N	N	f	569.58	0	9	24	2	56	i	j	853.41	1	100	1000	0	0
124	2	62	P	P	d	703.26	1	8	56	3	24	c	j	970.85	1	100	100	1	0
124	2	63	N	N	f	1337.51	0	4	24	7	56	c	n	586.27	1	1000	1000	1	0
124	2	64	N	N	f	536.07	0	2	24	7	56	c	n	585.59	1	1000	100	0	0
124	2	65	P	P	d	652.46	1	9	24	3	56	i	n	1036.81	1	1000	100	1	0
124	3	1	P	P	d	705.29	1	7	56	3	24	c	j	1521.16	1	100	100	-1	0
124	3	2	N	N	f	905.61	0	7	24	2	56	i	j	1373.17	1	1000	1000	1	0
124	3	3	N	N	f	504.73	0	8	56	4	24	c	j	684.99	1	100	100	0	0
124	3	4	P	P	d	536.52	1	9	24	2	56	i	n	854.16	1	100	1000	1	0
124	3	5	N	N	f	486.41	0	3	24	7	56	c	n	787.39	1	1000	1000	1	0
124	3	6	N	N	d	619.54	0	2	24	7	56	c	n	753.21	1	100	100	0	0
124	3	7	N	N	f	702.93	0	8	24	4	56	i	j	970.69	1	100	1000	0	0
124	3	8	P	P	d	536.56	1	3	24	8	56	c	n	553.8	1	1000	100	1	0
124	3	9	P	P	d	604.47	1	2	56	8	24	i	j	605.49	1	100	100	0	0
124	3	10	P	P	d	719.78	1	3	56	8	24	i	j	787.19	1	1000	100	0	0
124	3	11	P	P	d	536.35	1	8	24	2	56	i	n	703.45	1	1000	100	0	0
124	3	12	P	P	d	519.67	1	7	24	4	56	i	n	517.52	1	100	1000	0	0
124	3	13	P	P	d	1003.57	1	9	24	3	56	i	n	636.54	1	1000	1000	0	0
124	3	14	N	N	f	1087.29	0	7	56	4	24	c	j	819.82	1	1000	100	1	0
124	3	15	N	N	f	534.3	0	3	56	8	24	i	n	603.08	1	100	100	0	0
124	3	16	P	P	d	602.64	1	8	24	4	56	i	n	569.98	1	100	100	1	0
124	3	17	N	N	f	586.36	0	2	56	9	24	i	n	1071.03	1	100	1000	1	0
124	3	18	N	N	f	1437.33	0	3	24	9	56	c	n	1119.88	1	1000	1000	0	0
124	3	19	N	N	f	1236.6	0	9	56	2	24	c	j	503.36	1	1000	1000	0	0
124	3	20	N	N	f	602.79	0	4	56	8	24	i	n	1237.28	1	1000	1000	0	0
124	3	21	P	P	d	585.95	1	2	56	8	24	i	j	1471.0	1	100	1000	1	0
124	3	22	N	N	f	1037.13	0	8	56	3	24	c	j	1020.18	1	100	1000	1	0
124	3	23	P	P	d	1136.97	1	2	56	7	24	i	j	1103.94	1	1000	1000	1	0
124	3	24	N	N	f	1670.67	0	3	24	9	56	c	n	887.3	1	100	100	1	0
124	3	25	P	P	d	636.56	1	2	24	9	56	c	n	1037.11	1	100	100	1	0
124	3	26	N	N	f	1987.58	0	3	56	9	24	i	n	1554.21	1	1000	1000	1	0
124	3	27	N	N	f	819.47	0	4	24	7	56	c	n	786.69	1	1000	100	0	0
124	3	28	N	N	f	1036.57	0	2	56	7	24	i	n	836.61	1	100	1000	0	0
124	3	29	P	P	d	1170.55	1	7	24	4	56	i	n	1336.66	1	1000	1000	1	0
124	3	30	P	P	d	1053.36	1	8	56	2	24	c	j	1220.5	1	1000	100	0	0
124	3	31	N	N	f	717.97	0	3	56	8	24	i	n	1120.53	1	1000	100	1	0
124	3	32	N	N	f	919.51	0	2	56	9	24	i	n	686.7	1	1000	100	0	0
124	3	33	N	N	f	1187.12	0	9	24	3	56	i	j	836.92	1	1000	1000	0	0
124	3	34	N	N	f	670.47	0	2	24	9	56	c	n	787.08	1	100	1000	0	0
124	3	35	N	N	f	1488.08	0	8	56	4	24	c	j	836.81	1	100	1000	0	0
124	3	36	P	P	d	752.78	1	8	56	2	24	c	j	636.69	1	1000	100	1	0
124	3	37	P	P	d	835.89	1	3	24	9	56	c	n	853.22	1	100	100	0	0
124	3	38	N	N	f	1019.86	0	8	56	2	24	c	j	1053.83	1	100	100	1	0
124	3	39	P	P	d	819.69	1	4	56	8	24	i	j	2805.86	1	1000	100	1	0
124	3	40	N	N	f	602.75	0	7	56	3	24	c	j	936.57	1	1000	1000	1	0
124	3	41	N	N	f	570.46	0	7	24	4	56	i	j	953.62	1	100	100	0	0
124	3	42	P	P	d	986.78	1	2	24	7	56	c	n	1234.4	1	100	1000	1	0
124	3	43	P	P	d	586.13	1	3	56	8	24	i	j	1220.67	1	1000	1000	0	0
124	3	44	P	P	d	1019.51	1	2	24	7	56	c	n	753.05	1	1000	100	0	0
124	3	45	P	P	d	569.7	1	7	56	3	24	c	j	653.04	1	100	100	0	0
124	3	46	N	N	f	1286.82	0	2	56	9	24	i	n	853.25	1	100	100	1	0
124	3	47	N	N	f	3406.23	0	8	56	4	24	c	j	869.69	1	1000	100	0	0
124	3	48	P	P	d	1988.31	1	9	56	2	24	c	j	770.29	1	1000	1000	1	0
124	3	49	P	P	d	886.91	1	9	24	4	56	i	n	1053.87	1	100	100	0	0
124	3	50	N	N	f	786.43	0	3	24	9	56	c	n	1086.17	1	100	1000	1	0
124	3	51	N	N	f	984.63	0	7	24	4	56	i	j	1186.23	1	1000	100	0	0
124	3	52	P	P	d	2221.51	1	3	24	7	56	c	n	1171.02	1	1000	1000	1	0
124	3	53	P	P	d	735.93	1	4	24	7	56	c	n	553.11	1	1000	1000	0	0
124	3	54	N	N	f	619.32	0	9	24	3	56	i	j	1587.51	1	100	100	1	0
124	3	55	P	P	d	1270.88	1	7	56	4	24	c	j	1120.92	1	100	100	1	0
124	3	56	N	N	f	770.33	0	3	24	8	56	c	n	737.26	1	1000	100	1	0
124	3	57	P	P	d	670.81	1	9	56	4	24	c	j	1254.69	1	100	1000	1	0
124	3	58	P	P	d	853.59	1	3	24	7	56	c	n	1689.45	1	100	1000	0	0
124	3	59	P	P	d	922.21	1	2	56	7	24	i	n	771.81	0	100	1000	0	0
124	3	60	N	N	f	1285.74	0	7	24	3	56	i	j	1287.32	1	100	1000	1	1
124	3	61	P	P	d	1154.44	1	4	56	7	24	i	j	967.47	1	100	100	1	0
124	3	62	P	P	d	703.76	1	9	56	3	24	c	j	770.73	1	1000	1000	0	0
124	3	63	P	P	d	786.95	1	9	56	2	24	c	j	935.66	1	100	1000	0	0
124	3	64	N	N	f	771.48	0	9	24	3	56	i	j	1487.61	1	1000	100	1	0
124	3	65	P	P	d	920.0	1	7	24	2	56	i	n	1003.73	1	1000	100	1	0
124	4	1	P	P	d	936.35	1	8	56	2	24	c	j	852.91	1	100	100	-1	0
124	4	2	P	P	d	585.48	1	8	56	4	24	c	j	536.56	1	100	100	0	0
124	4	3	N	N	f	586.69	0	9	24	2	56	i	j	735.83	1	100	100	1	0
124	4	4	P	P	d	702.68	1	3	24	9	56	c	n	486.71	1	1000	1000	1	0
124	4	5	P	P	d	600.74	1	8	56	4	24	c	j	653.33	1	1000	1000	0	0
124	4	6	N	N	f	536.77	0	2	56	9	24	i	n	753.63	1	100	100	1	0
124	4	7	N	N	f	534.28	0	8	24	4	56	i	j	686.68	1	100	1000	0	0
124	4	8	N	N	f	537.3	0	3	56	9	24	i	n	536.13	1	1000	1000	0	0
124	4	9	P	P	d	703.44	1	9	56	4	24	c	j	701.06	1	100	1000	1	0
124	4	10	P	P	d	686.25	1	2	56	8	24	i	j	937.19	1	100	100	0	0
124	4	11	N	N	f	567.67	0	3	56	9	24	i	n	986.87	1	1000	100	1	0
124	4	12	N	N	f	536.21	0	9	56	2	24	c	j	651.77	1	1000	100	0	0
124	4	13	P	P	d	1087.31	1	3	24	8	56	c	n	1387.12	1	1000	100	1	0
124	4	14	N	N	f	753.43	0	4	24	9	56	c	n	702.52	1	100	1000	1	0
124	4	15	P	P	d	819.84	1	8	24	2	56	i	j	853.83	0	100	1000	1	0
124	4	16	N	N	f	1470.6	0	7	56	4	24	c	j	736.38	1	100	1000	1	1
124	4	17	P	P	d	719.55	1	2	56	8	24	i	j	1003.97	1	1000	1000	1	0
124	4	18	P	P	d	736.02	1	3	24	8	56	c	n	1420.82	1	1000	1000	0	0
124	4	19	P	P	d	503.17	1	4	56	9	24	i	j	1020.56	1	100	1000	0	0
124	4	20	N	N	f	1337.26	0	8	24	3	56	i	j	1237.31	1	1000	1000	1	0
124	4	21	P	P	d	1070.25	1	4	56	7	24	i	j	954.25	1	100	100	1	0
124	4	22	P	P	d	636.44	1	2	56	9	24	i	j	903.75	1	1000	100	0	0
124	4	23	N	N	d	903.3	0	4	56	9	24	i	n	1219.89	1	100	1000	1	0
124	4	24	N	N	f	2655.13	0	3	56	7	24	i	n	1337.86	1	1000	100	0	0
124	4	25	N	N	f	953.15	0	8	24	4	56	i	j	1320.46	1	1000	100	0	0
124	4	26	P	P	d	2671.81	1	9	56	3	24	c	j	1035.91	1	100	100	1	0
124	4	27	P	P	d	1654.9	1	4	24	7	56	c	n	853.0	1	100	100	0	0
124	4	28	P	P	d	786.37	1	3	24	7	56	c	n	5425.37	1	100	1000	0	0
124	4	29	N	N	f	536.59	0	9	24	2	56	i	j	1037.98	1	1000	100	1	0
124	4	30	N	N	d	202.73	0	3	24	9	56	c	n	1403.79	1	1000	100	0	0
124	4	31	P	P	d	1454.11	1	8	56	2	24	c	j	1052.79	1	1000	100	1	0
124	4	32	N	N	f	836.71	0	7	56	4	24	c	j	852.96	1	1000	100	1	0
124	4	33	P	P	d	1602.28	1	8	24	3	56	i	n	1803.64	1	1000	100	1	0
124	4	34	N	N	f	669.79	0	4	56	9	24	i	n	1920.73	1	1000	1000	1	0
124	4	35	N	N	f	667.71	0	2	24	9	56	c	n	2155.16	1	1000	1000	0	0
124	4	36	N	N	f	620.12	0	4	24	8	56	c	n	1804.85	1	100	1000	0	0
124	4	37	P	P	d	1140.15	1	8	24	2	56	i	n	1485.95	1	1000	1000	1	0
124	4	38	P	P	d	737.37	1	9	24	3	56	i	n	937.16	1	1000	1000	0	0
124	4	39	P	P	d	1605.24	1	7	24	2	56	i	n	1103.43	1	1000	100	0	0
124	4	40	N	N	f	651.26	0	7	56	4	24	c	j	834.92	1	100	100	1	0
124	4	41	N	N	f	1304.03	0	8	56	3	24	c	j	1004.15	1	1000	1000	0	0
124	4	42	P	P	d	804.78	1	9	56	4	24	c	j	1153.69	1	1000	1000	1	0
124	4	43	N	N	f	3840.8	0	3	24	7	56	c	n	836.5	1	1000	1000	1	0
124	4	44	N	N	f	670.44	0	9	24	2	56	i	j	1220.29	1	1000	1000	0	0
124	4	45	P	P	d	1170.44	1	7	24	4	56	i	n	4274.26	1	100	100	1	0
124	4	46	P	P	d	1187.04	1	7	56	3	24	c	j	1454.5	1	1000	100	0	0
124	4	47	P	P	d	502.97	1	9	56	4	24	c	j	603.49	1	100	1000	0	0
124	4	48	P	P	d	1038.39	1	2	24	7	56	c	n	1520.31	1	1000	100	0	0
124	4	49	N	N	f	719.96	0	3	24	9	56	c	n	1504.28	1	1000	100	1	0
124	4	50	N	N	f	1086.88	0	7	56	2	24	c	j	2422.0	1	100	1000	0	0
124	4	51	P	P	d	802.96	1	4	24	9	56	c	n	1588.74	1	100	100	1	0
124	4	52	N	N	f	666.73	0	7	56	2	24	c	j	837.35	1	1000	1000	1	0
124	4	53	N	N	f	2922.11	0	9	24	4	56	i	j	1154.24	1	100	100	0	0
124	4	54	N	N	f	552.93	0	7	56	3	24	c	j	1103.6	1	100	100	0	0
124	4	55	N	N	f	685.55	0	4	56	7	24	i	n	819.45	1	100	100	0	0
124	4	56	P	P	d	603.35	1	2	24	7	56	c	n	569.75	1	100	1000	1	0
124	4	57	P	P	d	536.4	1	9	24	4	56	i	n	1221.1	1	100	1000	0	0
124	4	58	P	P	f	651.15	1	2	56	9	24	i	j	570.19	1	1000	1000	0	0
124	4	59	N	N	f	1470.29	0	3	24	7	56	c	n	1537.11	1	100	100	1	0
124	4	60	P	P	d	603.0	1	4	56	9	24	i	j	854.17	1	1000	100	1	0
124	4	61	P	P	d	769.71	1	9	24	2	56	i	n	1804.82	1	100	100	0	0
124	4	62	N	N	f	786.83	0	9	24	3	56	i	j	7059.82	1	100	1000	1	0
124	4	63	N	N	f	1003.5	0	2	24	7	56	c	n	2271.13	1	100	100	0	0
124	4	64	N	N	f	869.95	0	4	56	7	24	i	n	1236.5	1	100	1000	0	0
124	4	65	P	P	d	686.38	1	2	56	7	24	i	j	1453.91	1	100	1000	1	0
124	5	1	N	N	f	1053.39	0	3	24	9	56	c	n	852.41	1	100	100	-1	0
124	5	2	P	P	d	553.1	1	7	24	4	56	i	n	986.74	1	1000	100	1	0
124	5	3	P	P	d	1036.74	1	8	24	2	56	i	n	1670.94	1	1000	100	0	0
124	5	4	N	N	f	603.2	0	4	56	8	24	i	n	1488.21	1	1000	1000	1	0
124	5	5	P	P	d	1137.23	1	7	56	3	24	c	j	886.73	1	100	1000	1	0
124	5	6	N	N	f	586.27	0	4	24	8	56	c	n	787.04	1	1000	1000	1	0
124	5	7	P	P	d	703.05	1	3	56	7	24	i	j	1120.3	1	1000	100	1	0
124	5	8	P	P	d	803.01	1	4	24	9	56	c	n	867.73	1	100	1000	0	0
124	5	9	N	N	d	4224.19	0	7	24	3	56	i	n	2654.97	0	100	100	1	0
124	5	10	N	N	f	753.11	0	2	24	7	56	c	n	1120.36	1	100	1000	0	1
124	5	11	P	P	d	653.51	1	8	24	3	56	i	n	4158.07	1	100	1000	1	0
124	5	12	P	P	d	603.72	1	4	24	7	56	c	n	1385.66	1	1000	1000	0	0
124	5	13	N	N	f	773.9	0	3	24	7	56	c	n	655.22	1	1000	100	1	0
124	5	14	N	N	f	521.1	0	4	24	9	56	c	n	841.59	1	100	100	0	0
124	5	15	N	N	f	471.97	0	2	56	9	24	i	n	1005.64	1	100	100	0	0
124	5	16	P	P	d	954.62	1	4	56	7	24	i	j	1987.71	1	100	100	1	0
124	5	17	N	N	f	1855.18	0	8	24	3	56	i	j	936.89	1	1000	1000	1	0
124	5	18	P	P	d	903.7	1	4	24	8	56	c	n	1287.94	1	1000	100	1	0
124	5	19	P	P	d	853.22	1	7	56	2	24	c	j	1385.38	1	100	1000	0	0
124	5	20	P	P	d	6577.48	1	9	56	4	24	c	j	5559.22	1	100	100	0	0
124	5	21	N	N	f	653.28	0	7	56	3	24	c	j	620.43	1	100	1000	1	0
124	5	22	P	P	d	867.95	1	7	56	4	24	c	j	853.0	1	100	100	1	0
124	5	23	N	N	f	953.36	0	3	56	9	24	i	n	1687.9	1	1000	100	1	0
124	5	24	N	N	f	551.04	0	9	24	4	56	i	j	1153.64	1	100	1000	0	0
124	5	25	N	N	f	654.19	0	8	24	3	56	i	j	836.81	1	1000	1000	0	0
124	5	26	P	P	d	653.11	1	4	24	9	56	c	n	1004.03	1	100	1000	1	0
124	5	27	N	N	f	652.66	0	3	56	7	24	i	n	1370.04	1	100	100	1	0
124	5	28	N	N	f	519.46	0	7	24	2	56	i	j	552.98	1	100	100	0	0
124	5	29	P	P	d	618.11	1	8	56	3	24	c	j	954.22	1	1000	1000	1	0
124	5	30	N	N	f	3105.72	0	7	24	2	56	i	j	1804.38	1	1000	100	1	0
124	5	31	N	N	f	504.07	0	3	56	9	24	i	n	771.0	1	100	1000	0	0
124	5	32	N	N	f	753.11	0	9	56	4	24	c	j	720.4	1	100	100	0	0
124	5	33	N	N	f	519.66	0	9	56	3	24	c	j	569.54	1	100	1000	0	0
124	5	34	N	N	f	770.12	0	8	56	4	24	c	j	736.51	1	1000	100	0	0
124	5	35	N	N	f	920.14	0	2	56	7	24	i	n	1037.41	1	1000	1000	0	0
124	5	36	N	N	f	436.0	0	9	24	4	56	i	j	753.54	1	1000	100	0	0
124	5	37	N	N	f	836.69	0	8	56	3	24	c	j	503.04	1	1000	1000	0	0
124	5	38	P	P	d	619.66	1	2	56	9	24	i	j	819.41	1	1000	1000	1	0
124	5	39	P	P	d	804.26	1	9	24	3	56	i	n	653.75	1	100	1000	0	0
124	5	40	P	P	d	2455.42	1	8	56	4	24	c	j	1020.42	1	1000	100	0	0
124	5	41	P	P	d	586.38	1	2	56	9	24	i	j	736.51	1	1000	100	0	0
124	5	42	P	P	d	702.98	1	3	56	7	24	i	j	636.71	1	100	100	0	0
124	5	43	P	P	d	819.84	1	8	24	4	56	i	n	820.23	1	1000	1000	0	0
124	5	44	P	P	d	519.48	1	2	56	8	24	i	j	637.02	1	1000	1000	0	0
124	5	45	P	P	d	452.76	1	7	56	3	24	c	j	970.53	1	1000	1000	0	0
124	5	46	N	N	f	569.84	0	8	24	4	56	i	j	970.75	1	100	1000	1	0
124	5	47	P	P	d	753.41	1	2	56	8	24	i	j	1270.67	1	100	1000	1	0
124	5	48	N	N	f	1188.59	0	3	24	8	56	c	n	702.96	1	100	1000	1	0
124	5	49	P	P	d	719.39	1	7	56	2	24	c	j	1721.27	1	1000	100	1	0
124	5	50	N	N	d	635.95	0	9	56	3	24	c	j	636.29	1	1000	1000	1	0
124	5	51	P	P	d	536.62	1	4	24	8	56	c	n	1571.67	1	1000	1000	1	0
124	5	52	P	P	d	652.99	1	3	24	9	56	c	n	736.22	1	1000	100	0	0
124	5	53	P	P	d	969.45	1	9	24	4	56	i	n	1320.31	1	100	100	0	0
124	5	54	P	P	d	637.19	1	2	24	7	56	c	n	620.94	1	100	100	0	0
124	5	55	N	N	f	1236.69	0	8	56	4	24	c	j	686.62	1	1000	100	1	0
124	5	56	N	N	f	486.15	0	2	24	9	56	c	n	653.2	1	1000	100	0	0
124	5	57	P	P	d	786.74	1	7	24	3	56	i	n	1437.59	1	100	100	1	0
124	5	58	N	N	f	552.33	0	4	24	8	56	c	n	1855.27	1	100	100	1	0
124	5	59	N	N	f	920.1	0	3	24	8	56	c	n	720.12	1	1000	1000	0	0
124	5	60	P	P	d	669.7	1	9	24	2	56	i	n	1905.68	1	1000	1000	1	0
124	5	61	P	P	d	653.09	1	3	56	8	24	i	j	786.7	1	100	1000	0	0
124	5	62	N	N	f	669.74	0	9	56	2	24	c	j	617.98	1	100	100	1	0
124	5	63	N	N	f	1988.78	0	4	56	8	24	i	n	1204.68	1	1000	100	0	0
124	5	64	P	P	d	721.04	1	2	24	8	56	c	n	837.64	1	100	100	1	0
124	5	65	N	N	f	2823.16	0	4	56	9	24	i	n	1068.27	1	100	1000	1	0
124	6	1	N	N	f	1404.47	0	2	56	9	24	i	n	1071.07	1	100	100	-1	0
124	6	2	P	P	d	819.84	1	9	24	3	56	i	n	1155.27	1	100	100	1	0
124	6	3	P	P	d	653.47	1	9	24	2	56	i	n	919.72	1	100	100	0	0
124	6	4	P	P	d	502.79	1	3	24	9	56	c	n	986.85	1	100	1000	0	0
124	6	5	P	P	d	635.65	1	9	56	4	24	c	j	452.77	1	100	1000	0	0
124	6	6	N	N	f	386.41	0	8	56	2	24	c	j	587.08	1	1000	1000	1	0
124	6	7	N	N	f	436.15	0	8	24	3	56	i	j	669.63	1	100	100	0	0
124	6	8	P	P	d	519.85	1	9	56	2	24	c	j	503.37	1	1000	1000	1	0
124	6	9	P	P	d	436.07	1	9	24	4	56	i	n	1220.17	1	1000	1000	0	0
124	6	10	P	P	d	502.48	1	2	56	7	24	i	j	703.8	1	100	100	0	0
124	6	11	N	N	f	653.5	0	8	24	4	56	i	j	1120.38	1	1000	1000	1	0
124	6	12	N	N	f	953.34	0	8	56	3	24	c	j	920.96	1	1000	100	0	0
124	6	13	P	P	d	670.08	1	2	56	7	24	i	j	1119.62	1	100	100	1	0
124	6	14	P	P	d	636.65	1	4	56	7	24	i	j	769.98	1	100	1000	0	0
124	6	15	N	N	f	1322.21	0	9	56	2	24	c	j	787.12	1	100	1000	1	0
124	6	16	P	P	d	819.9	1	3	24	8	56	c	n	769.94	1	100	100	1	0
124	6	17	N	N	f	1034.97	0	2	56	9	24	i	n	1037.54	1	1000	1000	1	0
124	6	18	P	P	f	751.29	1	7	56	3	24	c	j	1236.96	1	100	100	1	0
124	6	19	P	P	d	720.09	1	7	56	2	24	c	j	904.14	1	1000	100	0	0
124	6	20	N	N	f	585.84	0	4	24	9	56	c	n	786.78	1	100	100	1	0
124	6	21	N	N	f	719.71	0	3	24	7	56	c	n	720.32	1	100	100	0	0
124	6	22	P	P	d	1871.54	1	7	56	2	24	c	j	619.67	1	100	1000	1	0
124	6	23	P	P	d	685.98	1	4	56	8	24	i	j	1304.49	1	1000	1000	0	0
124	6	24	P	P	d	517.48	1	9	24	3	56	i	n	703.68	1	100	1000	0	0
124	6	25	N	N	f	553.42	0	2	56	8	24	i	n	1287.45	1	100	100	1	0
124	6	26	N	N	f	1152.96	0	4	56	8	24	i	n	1069.92	1	1000	100	0	0
124	6	27	N	N	f	1370.37	0	3	24	7	56	c	n	870.5	1	1000	1000	0	0
124	6	28	P	P	d	2301.28	1	4	24	8	56	c	n	1070.23	1	1000	100	1	0
124	6	29	P	P	d	619.09	1	3	24	8	56	c	n	467.39	1	100	100	0	0
124	6	30	N	N	f	603.12	0	2	56	7	24	i	n	1602.58	1	100	1000	1	0
124	6	31	N	N	f	670.94	0	9	56	4	24	c	j	870.07	1	100	100	0	0
124	6	32	N	N	f	469.61	0	2	24	9	56	c	n	670.52	1	100	1000	0	0
124	6	33	P	P	d	670.08	1	9	24	4	56	i	n	1353.89	1	1000	100	1	0
124	6	34	N	N	f	869.98	0	3	56	7	24	i	n	787.17	1	1000	100	1	0
124	6	35	P	P	d	854.58	1	9	56	2	24	c	j	1186.99	1	1000	100	1	0
124	6	36	N	N	f	1435.41	0	9	24	3	56	i	j	2305.0	1	100	1000	1	0
124	6	37	P	P	d	686.71	1	4	24	9	56	c	n	570.11	1	1000	1000	1	0
124	6	38	P	P	d	685.94	1	3	24	8	56	c	n	570.17	1	1000	1000	0	0
124	6	39	N	N	f	987.31	0	9	24	2	56	i	j	837.08	1	1000	100	1	0
124	6	40	P	P	d	803.22	1	3	24	8	56	c	n	870.87	1	100	1000	1	0
124	6	41	N	N	f	686.58	0	2	24	7	56	c	n	1088.05	1	1000	1000	1	0
124	6	42	N	N	f	1103.39	0	7	24	4	56	i	j	1854.51	1	100	1000	0	0
124	6	43	P	P	d	2538.22	1	7	24	3	56	i	n	2622.51	1	100	1000	1	0
124	6	44	N	N	f	820.01	0	8	56	4	24	c	j	1070.61	1	1000	100	1	0
124	6	45	P	P	d	619.88	1	3	56	9	24	i	j	1420.68	1	1000	1000	1	0
124	6	46	P	P	d	603.09	1	8	56	2	24	c	j	737.17	1	100	100	0	0
124	6	47	N	N	f	619.66	0	3	24	9	56	c	n	1504.71	1	100	1000	1	0
124	6	48	N	N	f	1688.76	0	7	24	4	56	i	j	1153.64	1	1000	1000	0	0
124	6	49	N	N	f	2221.87	0	3	24	8	56	c	n	1387.42	1	1000	100	0	0
124	6	50	N	N	f	686.79	0	9	56	2	24	c	j	734.48	1	1000	1000	0	0
124	6	51	N	N	f	853.98	0	4	56	7	24	i	n	854.03	1	100	100	0	0
124	6	52	P	P	d	536.9	1	2	56	7	24	i	j	2472.75	1	1000	100	1	0
124	6	53	P	P	d	688.88	1	3	24	8	56	c	n	1724.84	1	1000	100	0	0
124	6	54	N	N	f	575.58	0	9	56	2	24	c	j	670.69	1	100	100	1	0
124	6	55	N	N	f	2038.25	0	9	24	4	56	i	j	1456.87	1	1000	100	0	0
124	6	56	P	P	d	2355.39	1	8	24	3	56	i	n	988.03	1	1000	1000	1	0
124	6	57	P	P	d	651.3	1	9	56	2	24	c	j	934.86	1	1000	1000	0	0
124	6	58	N	N	f	620.52	0	4	24	8	56	c	n	1287.86	1	1000	100	1	0
124	6	59	N	N	f	653.84	0	7	56	2	24	c	j	869.92	1	100	1000	0	0
124	6	60	P	P	f	586.68	1	4	56	7	24	i	j	1120.24	1	100	1000	1	0
124	6	61	P	P	d	752.48	1	3	56	9	24	i	j	986.57	1	1000	100	0	0
124	6	62	P	P	d	469.45	1	7	24	2	56	i	n	603.07	1	1000	100	0	0
124	6	63	N	N	f	804.34	0	7	24	3	56	i	j	1001.37	1	100	100	1	0
124	6	64	N	N	f	536.46	0	4	56	9	24	i	n	1487.32	1	100	1000	0	0
124	6	65	N	N	f	769.22	0	3	56	7	24	i	n	1971.58	1	1000	1000	0	0
