subj	block	trial	task_cue	task	choice_resp	choiceRT	choice_acc	topnum	topsize	botnum	botsize	cong	task_resp	taskRT	task_acc	RSI	CSI	altRep	E1
146	1	1	N	N	d	635.62	0	8	56	4	24	c	j	502.52	1	100	1000	-1	0
146	1	2	P	P	f	868.18	1	9	56	2	24	c	j	719.52	1	100	100	1	0
146	1	3	N	N	d	702.7	0	9	24	4	56	i	j	668.89	1	100	1000	1	0
146	1	4	N	N	d	752.78	0	2	56	8	24	i	n	769.02	1	1000	100	0	0
146	1	5	N	N	d	502.64	0	4	56	9	24	i	n	519.38	1	1000	1000	0	0
146	1	6	P	P	f	450.84	1	7	24	2	56	i	n	519.29	1	1000	1000	1	0
146	1	7	P	P	f	652.0	1	9	56	4	24	c	j	685.75	1	100	100	0	0
146	1	8	N	N	d	535.66	0	2	56	9	24	i	n	836.09	1	1000	1000	1	0
146	1	9	N	N	d	452.65	0	9	24	4	56	i	j	837.12	1	1000	100	0	0
146	1	10	P	P	f	552.57	1	7	24	2	56	i	n	769.34	1	100	100	1	0
146	1	11	P	P	f	518.99	1	4	24	9	56	c	n	418.94	1	1000	1000	0	0
146	1	12	N	N	d	534.69	0	3	56	7	24	i	n	701.61	1	100	100	1	0
146	1	13	P	P	f	469.11	1	4	56	8	24	i	n	668.99	0	1000	100	1	0
146	1	14	P	P	f	936.28	1	2	56	8	24	i	j	635.95	1	100	100	0	1
146	1	15	P	P	f	469.03	1	9	24	3	56	i	n	585.66	1	100	1000	0	0
146	1	16	N	N	d	485.81	0	4	24	9	56	c	n	717.98	1	100	100	1	0
146	1	17	P	P	f	501.59	1	8	24	2	56	i	n	669.32	1	1000	100	1	0
146	1	18	N	N	d	551.98	0	7	56	3	24	c	j	1136.76	1	1000	1000	1	0
146	1	19	P	P	f	535.67	1	9	56	2	24	c	j	602.57	1	1000	100	1	0
146	1	20	P	P	f	702.3	1	9	24	4	56	i	n	585.77	1	100	100	0	0
146	1	21	P	P	f	485.65	1	7	24	3	56	i	n	552.36	1	1000	100	0	0
146	1	22	P	P	f	434.91	1	4	56	9	24	i	j	719.8	1	1000	100	0	0
146	1	23	N	N	d	552.61	0	7	24	3	56	i	j	535.89	1	1000	1000	1	0
146	1	24	P	P	f	652.85	1	8	56	4	24	c	j	402.2	1	100	1000	1	0
146	1	25	N	N	d	702.83	0	9	56	3	24	c	j	919.4	1	100	100	1	0
146	1	26	N	N	d	501.84	0	4	56	9	24	i	n	685.72	1	100	1000	0	0
146	1	27	N	N	d	486.4	0	9	24	2	56	i	j	569.08	1	1000	1000	0	0
146	1	28	N	N	d	569.23	0	9	56	4	24	c	j	569.12	1	1000	1000	0	0
146	1	29	N	N	d	619.35	0	8	56	2	24	c	j	669.15	1	1000	100	0	0
146	1	30	P	P	f	669.33	1	3	24	9	56	c	n	618.83	1	100	1000	1	0
146	1	31	P	P	f	667.71	1	2	24	7	56	c	n	585.74	1	100	1000	0	0
146	1	32	N	N	f	469.42	0	8	56	4	24	c	j	1003.09	1	100	1000	1	0
146	1	33	N	N	d	535.67	0	7	24	3	56	i	j	986.31	1	100	100	0	0
146	1	34	P	P	f	501.33	1	4	24	9	56	c	n	819.29	1	1000	100	1	0
146	1	35	P	P	f	452.26	1	8	24	2	56	i	n	552.44	1	1000	1000	0	0
146	1	36	N	N	d	569.14	0	4	56	8	24	i	n	702.78	1	100	1000	1	0
146	1	37	P	P	f	569.41	1	3	56	8	24	i	j	1152.13	1	1000	1000	1	0
146	1	38	N	N	d	585.62	0	4	24	7	56	c	n	769.31	1	1000	1000	1	0
146	1	39	N	N	d	702.19	0	3	24	9	56	c	n	769.24	1	100	100	0	0
146	1	40	N	N	d	752.44	0	4	24	8	56	c	n	535.89	1	100	1000	0	0
146	1	41	P	P	f	969.79	1	9	24	3	56	i	n	552.3	1	100	1000	1	0
146	1	42	N	N	d	402.39	0	8	56	4	24	c	j	752.36	1	1000	100	1	0
146	1	43	N	N	d	485.77	0	2	56	9	24	i	n	785.95	1	100	100	0	0
146	1	44	N	N	d	469.16	0	9	56	4	24	c	j	467.58	1	100	1000	0	0
146	1	45	N	N	d	502.65	0	7	24	2	56	i	j	919.64	1	100	1000	0	0
146	1	46	P	P	f	552.49	1	3	56	9	24	i	j	601.61	1	100	100	1	0
146	1	47	P	P	f	518.95	1	2	24	8	56	c	n	802.53	1	1000	100	0	0
146	1	48	P	P	f	652.3	1	4	56	8	24	i	j	485.91	1	100	1000	0	0
146	1	49	P	P	f	520.05	1	3	24	9	56	c	n	735.8	1	100	100	0	0
146	1	50	N	N	d	702.54	0	9	24	4	56	i	j	836.13	1	100	100	1	0
146	1	51	N	N	d	452.44	0	2	24	9	56	c	n	619.88	1	1000	1000	0	0
146	1	52	P	P	f	469.05	1	7	56	4	24	c	j	535.6	1	1000	1000	1	0
146	1	53	P	P	f	719.22	1	7	56	2	24	c	j	602.34	1	1000	100	0	0
146	1	54	P	P	f	519.26	1	7	56	4	24	c	j	602.39	1	100	1000	0	0
146	1	55	P	P	f	485.03	1	2	56	8	24	i	j	518.34	1	1000	1000	0	0
146	1	56	N	N	d	669.26	0	3	24	7	56	c	n	552.29	1	100	1000	1	0
146	1	57	P	P	f	751.87	1	2	24	8	56	c	n	1270.08	1	100	100	1	0
146	1	58	N	N	d	669.4	0	3	56	9	24	i	n	1002.83	1	1000	100	1	0
146	1	59	N	N	d	485.36	0	4	24	9	56	c	n	567.73	1	1000	100	0	0
146	1	60	P	P	f	636.0	1	2	24	9	56	c	n	886.04	1	1000	1000	1	0
146	1	61	P	P	f	435.72	1	7	56	3	24	c	j	569.08	1	1000	1000	0	0
146	1	62	N	N	d	435.89	0	9	24	4	56	i	j	769.1	1	1000	100	1	0
146	1	63	N	N	d	418.89	0	9	56	2	24	c	j	652.69	1	100	100	0	0
146	1	64	P	P	f	452.41	1	3	56	8	24	i	j	585.03	1	100	1000	1	0
146	1	65	N	N	d	435.7	0	4	24	7	56	c	n	802.43	1	1000	100	1	0
146	2	1	P	P	f	802.6	1	9	56	3	24	c	j	768.52	1	100	100	-1	0
146	2	2	P	P	f	586.19	1	8	24	4	56	i	n	786.05	1	100	1000	0	0
146	2	3	N	N	d	352.16	0	2	56	9	24	i	n	619.25	1	1000	100	1	0
146	2	4	N	N	d	452.08	0	8	24	4	56	i	j	701.89	1	100	1000	0	0
146	2	5	P	P	f	602.4	1	9	56	2	24	c	j	534.4	1	100	100	1	0
146	2	6	N	N	d	569.6	0	8	24	3	56	i	j	784.77	1	100	100	1	0
146	2	7	N	N	f	468.92	0	8	56	2	24	c	j	1453.73	1	1000	100	0	0
146	2	8	P	P	f	619.07	1	9	56	4	24	c	j	819.32	1	1000	1000	1	0
146	2	9	N	N	d	686.25	0	7	56	3	24	c	j	785.93	1	100	100	1	0
146	2	10	N	N	d	452.64	0	2	24	8	56	c	n	652.01	1	1000	100	0	0
146	2	11	P	P	f	719.37	1	4	24	7	56	c	n	702.52	1	100	100	1	0
146	2	12	N	N	d	502.36	0	3	24	8	56	c	n	769.56	1	100	1000	1	0
146	2	13	N	N	d	552.54	0	7	56	4	24	c	j	636.13	1	100	1000	0	0
146	2	14	N	N	d	585.88	0	9	24	3	56	i	j	852.77	1	100	100	0	0
146	2	15	P	P	f	350.9	1	4	24	7	56	c	n	469.15	1	1000	100	1	0
146	2	16	P	P	f	452.49	1	7	56	3	24	c	j	569.09	1	1000	100	0	0
146	2	17	N	N	d	619.28	0	9	24	4	56	i	j	819.08	1	1000	100	1	0
146	2	18	N	N	d	819.33	0	2	24	9	56	c	n	602.18	1	100	100	0	0
146	2	19	P	P	f	685.21	1	9	56	3	24	c	j	567.79	1	1000	100	1	0
146	2	20	N	N	d	368.99	0	7	24	4	56	i	j	919.25	1	1000	1000	1	0
146	2	21	N	N	d	502.4	0	2	56	9	24	i	n	684.46	1	100	1000	0	0
146	2	22	P	P	f	819.31	1	9	24	4	56	i	n	986.58	1	100	100	1	0
146	2	23	N	N	d	385.62	0	9	56	3	24	c	j	753.15	1	1000	1000	1	0
146	2	24	P	P	f	636.09	1	4	24	9	56	c	n	418.6	1	1000	1000	1	0
146	2	25	P	P	f	668.44	1	8	56	3	24	c	j	618.62	1	100	100	0	0
146	2	26	N	N	d	552.65	0	4	24	8	56	c	n	719.11	1	100	100	1	0
146	2	27	P	P	f	652.9	1	2	56	9	24	i	j	786.07	1	100	100	1	0
146	2	28	P	P	f	569.12	1	8	56	4	24	c	j	402.28	1	1000	1000	0	0
146	2	29	P	P	f	451.56	1	2	24	7	56	c	n	552.53	1	1000	100	0	0
146	2	30	P	P	f	552.34	1	3	56	7	24	i	j	686.08	1	1000	100	0	0
146	2	31	P	P	f	452.5	1	7	24	4	56	i	j	769.27	0	1000	100	0	0
146	2	32	P	P	f	969.76	1	3	24	9	56	c	n	635.44	1	100	100	0	1
146	2	33	P	P	f	686.2	1	2	24	7	56	c	n	452.29	1	1000	1000	0	0
146	2	34	P	P	f	436.01	1	3	24	7	56	c	n	401.9	1	100	1000	0	0
146	2	35	P	P	f	452.43	1	8	24	2	56	i	n	503.29	1	1000	1000	0	0
146	2	36	P	P	f	436.28	1	8	56	4	24	c	j	802.79	1	100	1000	0	0
146	2	37	N	N	d	652.78	0	7	24	2	56	i	j	502.55	1	100	1000	1	0
146	2	38	N	N	d	435.41	0	9	24	3	56	i	j	585.14	1	1000	1000	0	0
146	2	39	N	N	d	486.29	0	2	24	7	56	c	n	1019.49	1	1000	1000	0	0
146	2	40	P	P	f	586.1	1	7	56	3	24	c	j	669.38	1	100	1000	1	0
146	2	41	N	N	d	502.26	0	4	56	7	24	i	n	485.52	1	100	1000	1	0
146	2	42	P	P	f	568.94	1	8	24	2	56	i	n	852.73	1	1000	100	1	0
146	2	43	P	P	f	602.55	1	9	24	3	56	i	n	718.71	1	100	100	0	0
146	2	44	N	N	d	419.37	0	4	24	9	56	c	n	619.38	1	1000	100	1	0
146	2	45	N	N	d	385.62	0	2	56	7	24	i	n	918.65	1	1000	100	0	0
146	2	46	P	P	f	685.87	1	8	24	3	56	i	n	785.9	1	100	1000	1	0
146	2	47	N	N	d	385.59	0	4	56	7	24	i	n	869.86	1	1000	1000	1	0
146	2	48	P	P	f	485.77	1	3	24	9	56	c	n	886.18	1	100	1000	1	0
146	2	49	N	N	d	435.75	0	9	56	2	24	c	j	919.4	1	100	1000	1	0
146	2	50	N	N	d	518.14	0	3	56	7	24	i	n	669.39	1	100	100	0	0
146	2	51	P	P	f	485.79	1	7	24	4	56	i	n	385.82	1	1000	1000	1	0
146	2	52	N	N	d	452.49	0	2	56	8	24	i	n	752.44	1	100	100	1	0
146	2	53	N	N	d	535.81	0	8	24	4	56	i	j	552.44	1	1000	100	0	0
146	2	54	N	N	d	435.7	0	2	24	7	56	c	n	435.12	1	100	1000	0	0
146	2	55	N	N	d	552.28	0	9	56	3	24	c	j	552.73	1	100	100	0	0
146	2	56	N	N	d	519.3	0	9	56	2	24	c	j	502.66	1	1000	1000	0	0
146	2	57	P	P	f	451.89	1	4	56	7	24	i	j	1036.54	1	1000	100	1	0
146	2	58	N	N	f	468.49	0	9	56	2	24	c	j	935.96	1	1000	100	1	0
146	2	59	N	N	d	619.08	0	4	56	7	24	i	n	752.6	1	1000	1000	0	0
146	2	60	P	P	f	702.81	1	3	56	7	24	i	j	786.09	1	1000	1000	1	0
146	2	61	N	N	d	618.84	0	4	24	8	56	c	n	919.17	1	1000	1000	1	0
146	2	62	P	P	f	619.71	1	2	56	7	24	i	j	902.68	1	100	1000	1	0
146	2	63	P	P	d	819.65	1	4	56	8	24	i	j	1270.53	1	100	100	0	0
146	2	64	P	P	f	535.92	1	3	56	9	24	i	j	653.0	1	1000	1000	0	0
146	2	65	P	P	f	617.76	1	4	56	8	24	i	j	703.49	1	100	1000	0	0
146	3	1	N	N	d	418.49	0	2	24	7	56	c	n	953.03	1	1000	1000	-1	0
146	3	2	P	P	f	352.41	1	9	56	4	24	c	j	536.2	1	1000	100	1	0
146	3	3	N	N	d	468.61	0	3	24	9	56	c	n	552.65	1	1000	1000	1	0
146	3	4	N	N	d	552.49	0	9	24	4	56	i	j	669.75	1	1000	1000	0	0
146	3	5	P	P	f	552.24	1	7	56	3	24	c	j	502.97	1	100	1000	1	0
146	3	6	P	P	f	751.13	1	4	56	7	24	i	j	652.76	1	100	100	0	0
146	3	7	P	P	f	435.71	1	2	24	8	56	c	n	535.42	1	100	100	0	0
146	3	8	N	N	d	369.35	0	4	56	8	24	i	n	435.66	1	1000	1000	1	0
146	3	9	P	P	f	385.64	1	3	56	8	24	i	j	802.52	1	1000	100	1	0
146	3	10	N	N	d	452.26	0	7	56	2	24	c	j	668.99	1	100	1000	1	0
146	3	11	P	P	f	569.07	1	4	56	9	24	i	j	818.96	1	100	100	1	0
146	3	12	P	P	f	352.37	1	3	56	9	24	i	j	602.46	1	1000	1000	0	0
146	3	13	N	N	d	719.46	0	8	56	4	24	c	j	935.03	1	1000	1000	1	0
146	3	14	N	N	d	352.52	0	2	56	9	24	i	n	1086.2	1	1000	100	0	0
146	3	15	P	P	f	601.93	1	4	24	9	56	c	n	952.72	1	100	1000	1	0
146	3	16	N	N	d	519.17	0	3	56	8	24	i	n	1519.82	1	100	100	1	0
146	3	17	N	N	d	469.16	0	7	24	2	56	i	j	552.49	1	100	1000	0	0
146	3	18	N	N	d	385.65	0	4	24	8	56	c	n	719.25	1	1000	1000	0	0
146	3	19	N	N	d	585.24	0	8	56	3	24	c	j	685.8	1	1000	100	0	0
146	3	20	N	N	d	602.67	0	4	56	7	24	i	n	819.35	1	100	1000	0	0
146	3	21	P	P	f	969.58	1	2	24	9	56	c	n	418.35	1	1000	1000	1	0
146	3	22	P	P	f	669.19	1	9	56	3	24	c	j	736.12	1	100	100	0	0
146	3	23	P	P	f	385.43	1	2	56	7	24	i	j	469.29	1	100	1000	0	0
146	3	24	N	N	d	352.23	0	3	56	7	24	i	n	602.5	1	1000	100	1	0
146	3	25	P	P	f	635.73	1	7	24	2	56	i	n	852.93	1	100	100	1	0
146	3	26	N	N	d	703.08	0	9	56	3	24	c	j	736.37	1	100	100	1	0
146	3	27	N	N	d	552.17	0	2	24	9	56	c	n	518.97	1	100	100	0	0
146	3	28	N	N	d	468.39	0	3	56	8	24	i	n	569.26	1	100	100	0	0
146	3	29	P	P	f	385.34	1	7	24	4	56	i	n	452.65	1	1000	1000	1	0
146	3	30	P	P	f	402.11	1	2	24	9	56	c	n	986.2	1	100	1000	0	0
146	3	31	N	N	d	601.12	0	4	24	9	56	c	n	1203.78	1	100	1000	1	0
146	3	32	P	P	f	568.86	1	3	56	7	24	i	j	1203.32	1	100	1000	1	0
146	3	33	P	P	f	535.49	1	8	24	4	56	i	n	1336.49	1	100	100	0	0
146	3	34	P	P	f	419.13	1	7	56	2	24	c	j	752.7	1	1000	100	0	0
146	3	35	P	P	f	502.59	1	3	24	8	56	c	n	518.89	1	1000	100	0	0
146	3	36	P	P	d	585.45	1	2	24	9	56	c	n	669.22	1	1000	1000	0	0
146	3	37	P	P	f	569.22	1	4	56	9	24	i	j	636.08	1	1000	100	0	0
146	3	38	N	N	d	685.81	0	7	24	3	56	i	j	618.43	1	100	1000	1	0
146	3	39	N	N	d	1286.69	0	2	56	9	24	i	n	1036.2	1	1000	1000	0	0
146	3	40	N	N	d	552.49	0	3	24	8	56	c	n	1101.51	1	1000	100	0	0
146	3	41	P	P	f	602.06	1	8	24	4	56	i	n	869.41	1	100	1000	1	0
146	3	42	N	N	d	469.05	0	8	56	2	24	c	j	852.67	1	1000	100	1	0
146	3	43	N	N	d	535.83	0	9	56	4	24	c	j	634.91	1	1000	1000	0	0
146	3	44	N	N	d	786.18	0	7	56	2	24	c	j	469.07	1	100	1000	0	0
146	3	45	P	P	f	534.8	1	8	24	3	56	i	n	1253.27	1	1000	100	1	0
146	3	46	P	P	f	519.32	1	8	24	2	56	i	n	685.96	1	1000	1000	0	0
146	3	47	N	N	d	652.41	0	8	24	3	56	i	j	769.07	1	1000	100	1	0
146	3	48	P	P	f	585.65	1	4	24	8	56	c	n	603.42	1	100	100	1	0
146	3	49	N	N	d	436.08	0	3	56	8	24	i	n	1186.52	1	100	1000	1	0
146	3	50	N	N	d	518.81	0	2	24	7	56	c	n	769.09	1	100	1000	0	0
146	3	51	P	P	f	436.08	1	4	24	8	56	c	n	752.79	1	1000	100	1	0
146	3	52	N	N	d	402.36	0	8	24	2	56	i	j	652.21	1	100	100	1	0
146	3	53	N	N	d	535.95	0	7	56	3	24	c	j	636.04	1	100	100	0	0
146	3	54	N	N	d	502.68	0	9	24	2	56	i	j	618.14	1	1000	100	0	0
146	3	55	P	P	f	518.91	1	8	56	4	24	c	j	734.69	1	100	100	1	0
146	3	56	P	P	f	368.83	1	8	56	3	24	c	j	717.8	1	1000	1000	0	0
146	3	57	P	P	f	1986.44	1	8	56	2	24	c	j	402.45	1	100	1000	0	0
146	3	58	N	N	d	435.04	0	4	24	9	56	c	n	602.46	1	1000	100	1	0
146	3	59	P	P	f	519.15	1	9	56	2	24	c	j	534.47	1	1000	1000	1	0
146	3	60	N	N	d	585.94	0	4	24	9	56	c	n	752.62	1	100	100	1	0
146	3	61	N	N	d	518.09	0	7	24	2	56	i	j	619.12	1	100	100	0	0
146	3	62	P	P	f	652.48	1	4	56	7	24	i	j	419.07	1	1000	1000	1	0
146	3	63	P	P	f	602.56	1	8	24	2	56	i	n	635.92	1	100	1000	0	0
146	3	64	P	P	f	552.41	1	8	24	3	56	i	n	1270.29	1	1000	100	0	0
146	3	65	N	N	d	519.56	0	9	24	4	56	i	j	1036.31	1	1000	1000	1	0
146	4	1	P	P	f	568.55	1	8	24	4	56	i	n	919.65	1	1000	1000	-1	0
146	4	2	P	P	f	335.46	1	2	24	8	56	c	n	620.08	1	1000	1000	0	0
146	4	3	N	N	d	669.16	0	7	24	3	56	i	j	535.57	1	100	100	1	0
146	4	4	N	N	d	535.76	0	9	24	2	56	i	j	518.9	1	100	1000	0	0
146	4	5	N	N	d	619.01	0	8	24	4	56	i	j	618.01	1	100	100	0	0
146	4	6	P	P	f	418.85	1	9	56	3	24	c	j	735.52	1	1000	100	1	0
146	4	7	N	N	d	519.38	0	4	24	8	56	c	n	885.92	1	100	100	1	0
146	4	8	N	N	d	668.49	0	3	56	8	24	i	n	869.32	1	1000	100	0	0
146	4	9	N	N	d	602.47	0	7	24	4	56	i	j	1019.99	1	1000	100	0	0
146	4	10	P	P	f	769.45	1	2	24	7	56	c	n	535.73	1	100	1000	1	0
146	4	11	N	N	d	718.98	0	9	56	3	24	c	j	484.14	1	100	1000	1	0
146	4	12	P	P	f	669.24	1	7	24	4	56	i	n	835.91	1	1000	100	1	0
146	4	13	P	P	f	602.43	1	2	24	7	56	c	n	585.8	1	100	100	0	0
146	4	14	P	P	f	619.27	1	9	24	3	56	i	n	652.53	1	100	1000	0	0
146	4	15	P	P	d	552.39	1	2	24	9	56	c	n	602.59	1	100	1000	0	0
146	4	16	P	P	f	1020.11	1	3	56	8	24	i	j	468.41	1	100	1000	0	0
146	4	17	N	N	d	735.0	0	4	56	7	24	i	n	1019.85	1	1000	1000	1	0
146	4	18	P	P	f	535.81	1	2	56	8	24	i	j	602.4	1	100	1000	1	0
146	4	19	N	N	d	418.97	0	4	24	7	56	c	n	952.95	1	100	1000	1	0
146	4	20	N	N	d	335.49	0	3	24	8	56	c	n	686.41	1	1000	1000	0	0
146	4	21	N	N	d	585.71	0	4	24	9	56	c	n	502.79	1	100	1000	0	0
146	4	22	N	N	d	485.45	0	9	24	2	56	i	j	653.16	1	1000	1000	0	0
146	4	23	N	N	d	519.47	0	9	56	3	24	c	j	686.28	1	1000	100	0	0
146	4	24	P	P	f	602.14	1	7	56	2	24	c	j	586.03	1	100	100	1	0
146	4	25	N	N	d	552.56	0	8	56	3	24	c	j	485.65	1	1000	1000	1	0
146	4	26	N	N	d	535.87	0	7	56	2	24	c	j	585.89	1	1000	1000	0	0
146	4	27	P	P	f	652.79	1	3	56	7	24	i	j	952.48	1	1000	100	1	0
146	4	28	P	P	f	602.25	1	9	56	4	24	c	j	1018.63	1	1000	100	0	0
146	4	29	N	N	d	551.46	0	8	56	3	24	c	j	685.88	1	1000	100	1	0
146	4	30	P	P	f	901.73	1	4	56	7	24	i	j	936.43	1	100	100	1	0
146	4	31	N	N	d	635.84	0	9	24	3	56	i	j	769.11	1	1000	100	1	0
146	4	32	N	N	f	1118.42	0	4	56	7	24	i	n	870.4	1	100	1000	0	0
146	4	33	N	N	d	402.59	0	8	56	3	24	c	j	652.58	1	100	100	0	0
146	4	34	N	N	d	552.38	0	4	56	8	24	i	n	635.59	1	100	100	0	0
146	4	35	N	N	d	402.27	0	2	24	8	56	c	n	469.06	1	1000	100	0	0
146	4	36	P	P	f	401.84	1	4	56	7	24	i	j	501.48	1	1000	1000	1	0
146	4	37	P	P	f	468.99	1	9	56	2	24	c	j	652.27	1	100	1000	0	0
146	4	38	N	N	d	702.97	0	7	56	3	24	c	j	752.71	1	100	100	1	0
146	4	39	P	P	f	585.75	1	2	24	8	56	c	n	968.92	1	100	100	1	0
146	4	40	P	P	f	952.29	1	3	56	9	24	i	j	686.29	1	1000	100	0	0
146	4	41	N	N	d	519.29	0	8	24	2	56	i	j	452.54	1	1000	1000	1	0
146	4	42	N	N	d	769.36	0	9	56	4	24	c	j	786.08	1	100	1000	0	0
146	4	43	P	P	f	686.18	1	3	24	9	56	c	n	652.47	1	1000	1000	1	0
146	4	44	P	P	f	451.55	1	7	24	2	56	i	j	770.05	0	1000	100	0	0
146	4	45	N	N	d	485.58	0	4	56	7	24	i	n	969.61	1	1000	100	1	1
146	4	46	P	P	f	602.5	1	8	24	2	56	i	n	685.34	1	100	100	1	0
146	4	47	P	P	f	552.55	1	3	24	9	56	c	n	769.13	1	1000	100	0	0
146	4	48	N	N	d	519.38	0	2	24	9	56	c	n	886.09	1	1000	100	1	0
146	4	49	N	N	d	568.88	0	4	24	8	56	c	n	835.58	1	100	100	0	0
146	4	50	P	P	f	768.78	1	9	56	2	24	c	j	886.34	1	1000	1000	1	0
146	4	51	N	N	d	602.58	0	4	24	7	56	c	n	870.0	1	1000	1000	1	0
146	4	52	P	P	f	902.68	1	7	56	3	24	c	j	535.88	1	100	1000	1	0
146	4	53	N	N	d	769.36	0	2	56	7	24	i	n	1752.8	1	100	1000	1	0
146	4	54	P	P	f	485.81	1	7	24	4	56	i	n	1102.03	1	1000	1000	1	0
146	4	55	P	P	f	736.09	1	7	56	2	24	c	j	784.72	1	100	100	0	0
146	4	56	P	P	f	418.95	1	7	24	4	56	i	n	569.23	1	1000	1000	0	0
146	4	57	P	P	f	719.56	1	8	24	2	56	i	n	685.96	1	100	100	0	0
146	4	58	P	P	f	485.14	1	4	56	7	24	i	j	534.55	1	100	100	0	0
146	4	59	N	N	d	486.05	0	2	56	7	24	i	n	553.27	1	100	100	1	0
146	4	60	N	N	d	368.79	0	3	56	8	24	i	n	452.29	1	1000	1000	0	0
146	4	61	P	P	f	618.88	1	4	24	7	56	c	n	685.76	1	1000	100	1	0
146	4	62	N	N	d	468.93	0	7	24	2	56	i	j	635.21	1	100	1000	1	0
146	4	63	P	P	f	552.29	1	9	24	4	56	i	n	535.68	1	100	1000	1	0
146	4	64	P	P	f	602.7	1	3	56	9	24	i	j	736.16	1	1000	1000	0	0
146	4	65	P	P	f	419.41	1	8	56	4	24	c	j	435.6	1	1000	1000	0	0
146	5	1	P	P	f	602.13	1	8	24	4	56	i	n	768.84	1	100	100	-1	0
146	5	2	P	P	f	369.12	1	9	24	2	56	i	n	502.05	1	1000	1000	0	0
146	5	3	P	P	f	519.53	1	4	24	9	56	c	n	552.53	1	100	1000	0	0
146	5	4	N	N	d	502.24	0	7	24	2	56	i	j	602.56	1	1000	100	1	0
146	5	5	N	N	d	569.42	0	9	56	3	24	c	j	903.13	1	1000	100	0	0
146	5	6	P	P	f	484.59	1	4	56	7	24	i	j	552.1	1	1000	1000	1	0
146	5	7	N	N	d	719.25	0	3	56	8	24	i	n	886.1	1	1000	1000	1	0
146	5	8	P	P	f	568.55	1	8	56	2	24	c	j	802.83	1	1000	1000	1	0
146	5	9	N	N	d	735.83	0	4	56	7	24	i	n	819.26	1	100	1000	1	0
146	5	10	P	P	f	602.67	1	3	56	7	24	i	j	819.49	1	1000	100	1	0
146	5	11	P	P	f	1103.16	1	8	24	4	56	i	n	819.54	1	100	1000	0	0
146	5	12	P	P	f	736.81	1	3	24	9	56	c	n	802.22	1	1000	100	0	0
146	5	13	N	N	d	519.31	0	8	56	2	24	c	j	769.16	1	1000	100	1	0
146	5	14	N	N	d	569.17	0	7	24	4	56	i	n	651.13	0	100	1000	0	0
146	5	15	P	P	f	568.96	1	8	24	3	56	i	n	718.08	1	1000	1000	1	1
146	5	16	N	N	d	552.23	0	9	56	4	24	c	j	635.8	1	100	100	1	0
146	5	17	P	P	f	653.05	1	3	56	8	24	i	j	869.26	1	100	100	1	0
146	5	18	N	N	d	402.4	0	2	56	9	24	i	n	735.77	1	1000	100	1	0
146	5	19	N	N	d	385.73	0	4	56	9	24	i	n	584.81	1	1000	1000	0	0
146	5	20	P	P	f	769.34	1	8	56	2	24	c	j	602.73	1	100	1000	1	0
146	5	21	N	N	d	519.02	0	7	24	4	56	i	j	869.8	1	1000	1000	1	0
146	5	22	N	N	d	602.53	0	8	24	3	56	i	j	669.05	1	100	100	0	0
146	5	23	P	P	f	452.35	1	2	24	8	56	c	n	502.42	1	1000	1000	1	0
146	5	24	N	N	d	903.72	0	3	24	8	56	c	n	702.77	1	100	1000	1	0
146	5	25	P	P	f	669.15	1	9	56	4	24	c	j	735.53	1	100	100	1	0
146	5	26	N	N	d	718.58	0	8	24	2	56	i	j	536.03	1	100	1000	1	0
146	5	27	N	N	d	535.92	0	4	24	9	56	c	n	485.79	1	1000	1000	0	0
146	5	28	N	N	d	552.49	0	7	56	3	24	c	j	452.23	1	1000	1000	0	0
146	5	29	N	N	d	619.24	0	9	56	4	24	c	j	802.74	1	100	1000	0	0
146	5	30	P	P	f	602.36	1	8	24	3	56	i	n	752.9	1	100	100	1	0
146	5	31	P	P	f	702.43	1	2	24	8	56	c	n	452.73	1	1000	1000	0	0
146	5	32	P	P	f	702.62	1	7	56	4	24	c	j	635.65	1	100	100	0	0
146	5	33	P	P	f	835.98	1	9	56	2	24	c	j	651.87	1	1000	100	0	0
146	5	34	N	N	d	801.85	0	4	56	9	24	i	n	919.9	1	100	100	1	0
146	5	35	P	P	f	435.56	1	2	24	8	56	c	n	469.01	1	1000	100	1	0
146	5	36	P	P	f	835.9	1	4	56	9	24	i	j	468.83	1	100	100	0	0
146	5	37	P	P	f	802.7	1	2	56	9	24	i	j	468.84	1	100	1000	0	0
146	5	38	P	P	f	719.11	1	9	56	3	24	c	j	401.71	1	100	1000	0	0
146	5	39	N	N	d	801.85	0	2	24	8	56	c	n	736.69	1	100	100	1	0
146	5	40	N	N	d	620.1	0	4	24	9	56	c	n	684.31	1	100	100	0	0
146	5	41	P	P	f	852.98	1	9	56	3	24	c	j	986.11	1	1000	100	1	0
146	5	42	P	P	f	617.91	1	7	24	2	56	i	n	902.61	1	100	100	0	0
146	5	43	N	N	f	401.83	0	4	24	7	56	c	n	1052.34	1	1000	100	1	0
146	5	44	N	N	d	551.48	0	9	24	2	56	i	j	619.34	1	1000	1000	0	0
146	5	45	N	N	d	685.74	0	3	56	9	24	i	n	552.76	1	100	1000	0	0
146	5	46	P	P	f	802.64	1	4	24	8	56	c	n	735.97	1	100	100	1	0
146	5	47	N	N	d	586.09	0	7	56	2	24	c	j	769.56	1	1000	1000	1	0
146	5	48	N	N	d	569.23	0	4	24	9	56	c	n	702.3	1	1000	100	0	0
146	5	49	N	N	d	836.05	0	2	56	8	24	i	n	802.59	1	100	100	0	0
146	5	50	N	N	d	818.95	0	7	24	4	56	i	j	986.3	1	1000	100	0	0
146	5	51	N	N	d	552.71	0	2	24	8	56	c	n	585.66	1	100	1000	0	0
146	5	52	N	N	d	402.17	0	3	56	9	24	i	n	1069.9	1	1000	100	0	0
146	5	53	N	N	d	619.18	0	8	56	2	24	c	j	635.88	1	100	100	0	0
146	5	54	P	P	f	619.43	1	4	24	7	56	c	n	651.95	1	100	1000	1	0
146	5	55	N	N	d	502.29	0	7	56	3	24	c	j	901.96	1	100	1000	1	0
146	5	56	P	P	f	669.32	1	4	56	7	24	i	j	1036.05	1	100	1000	1	0
146	5	57	P	P	d	435.5	1	2	56	9	24	i	j	1136.18	1	1000	100	0	0
146	5	58	P	P	f	585.84	1	3	24	7	56	c	n	835.87	1	100	100	0	0
146	5	59	P	P	f	402.33	1	2	56	8	24	i	j	952.91	1	1000	1000	0	0
146	5	60	N	N	d	584.59	0	3	24	7	56	c	n	1236.48	1	1000	1000	1	0
146	5	61	P	P	f	719.43	1	9	24	4	56	i	n	952.8	1	1000	100	1	0
146	5	62	P	P	f	519.29	1	9	24	2	56	i	n	969.26	1	1000	100	0	0
146	5	63	N	N	d	769.31	0	9	24	4	56	i	j	768.9	1	100	100	1	0
146	5	64	P	P	f	719.13	1	8	24	2	56	i	n	869.53	1	100	1000	1	0
146	5	65	P	P	f	637.08	1	9	56	3	24	c	j	952.38	1	1000	1000	0	0
146	6	1	N	N	d	702.83	0	4	24	8	56	c	n	652.79	1	100	100	-1	0
146	6	2	N	N	d	552.53	0	2	56	8	24	i	n	752.73	1	100	100	0	0
146	6	3	P	P	f	652.5	1	7	56	4	24	c	j	569.72	1	100	1000	1	0
146	6	4	N	N	d	519.16	0	7	24	2	56	i	j	619.8	1	100	1000	1	0
146	6	5	N	N	d	435.7	0	4	24	7	56	c	n	468.51	1	1000	1000	0	0
146	6	6	P	P	f	652.63	1	8	24	3	56	i	n	769.09	1	1000	100	1	0
146	6	7	P	P	f	585.5	1	4	24	7	56	c	n	569.18	1	100	1000	0	0
146	6	8	N	N	d	485.79	0	2	24	9	56	c	n	735.79	1	1000	100	1	0
146	6	9	P	P	f	669.07	1	4	56	8	24	i	j	385.94	1	1000	1000	1	0
146	6	10	P	P	f	584.91	1	9	56	3	24	c	j	585.97	1	100	100	0	0
146	6	11	P	P	f	551.98	1	7	56	4	24	c	j	436.07	1	1000	1000	0	0
146	6	12	N	N	d	669.19	0	9	56	2	24	c	j	385.68	1	1000	1000	1	0
146	6	13	N	N	d	585.96	0	8	56	4	24	c	j	602.63	1	1000	100	0	0
146	6	14	N	N	d	385.53	0	7	56	3	24	c	j	352.58	1	1000	1000	0	0
146	6	15	P	P	f	802.63	1	2	24	8	56	c	n	669.2	1	1000	1000	1	0
146	6	16	P	P	f	552.57	1	4	56	7	24	i	j	551.41	1	100	100	0	0
146	6	17	N	N	d	585.3	0	3	24	7	56	c	n	652.62	1	1000	1000	1	0
146	6	18	N	N	d	385.55	0	4	24	8	56	c	n	452.23	1	100	1000	0	0
146	6	19	P	P	d	535.57	1	2	56	8	24	i	j	802.52	1	100	100	1	0
146	6	20	P	P	f	535.76	1	8	56	4	24	c	j	836.28	1	1000	100	0	0
146	6	21	P	P	f	569.22	1	9	24	2	56	i	n	786.29	1	1000	1000	0	0
146	6	22	N	N	d	1053.09	0	3	56	8	24	i	n	786.05	1	100	1000	1	0
146	6	23	P	P	f	1036.23	1	7	24	4	56	i	n	1036.47	1	100	100	1	0
146	6	24	P	P	f	903.01	1	8	24	3	56	i	n	852.93	1	100	1000	0	0
146	6	25	N	N	d	652.4	0	4	56	8	24	i	n	969.75	1	1000	100	1	0
146	6	26	P	P	f	1002.72	1	7	56	2	24	c	j	934.68	1	100	100	1	0
146	6	27	N	N	d	435.88	0	8	56	3	24	c	j	802.23	1	1000	100	1	0
146	6	28	P	P	f	619.53	1	7	56	2	24	c	j	535.95	1	1000	1000	1	0
146	6	29	P	P	f	652.59	1	4	56	7	24	i	j	969.96	1	1000	100	0	0
146	6	30	P	P	f	1269.98	1	9	24	2	56	i	n	769.11	1	1000	100	0	0
146	6	31	N	N	d	1019.26	0	9	56	3	24	c	j	769.02	1	100	1000	1	0
146	6	32	N	N	d	719.17	0	2	56	7	24	i	n	569.3	1	1000	1000	0	0
146	6	33	N	N	d	869.71	0	7	56	4	24	c	j	702.82	1	100	100	0	0
146	6	34	N	N	d	702.33	0	8	56	2	24	c	j	569.14	1	100	1000	0	0
146	6	35	N	N	d	719.6	0	9	24	3	56	i	j	1203.14	1	100	100	0	0
146	6	36	N	N	d	485.84	0	4	56	8	24	i	n	735.51	1	1000	100	0	0
146	6	37	P	P	f	735.88	1	3	56	8	24	i	j	468.93	1	100	1000	1	0
146	6	38	P	P	f	535.58	1	2	56	9	24	i	j	486.06	1	100	1000	0	0
146	6	39	N	N	d	601.5	0	3	56	9	24	i	n	835.92	1	100	100	1	0
146	6	40	N	N	d	535.6	0	2	24	9	56	c	n	668.72	1	100	100	0	0
146	6	41	P	P	f	468.72	1	7	56	4	24	c	j	702.43	1	1000	100	1	0
146	6	42	N	N	d	619.13	0	7	24	3	56	i	j	952.92	1	1000	1000	1	0
146	6	43	P	P	f	636.11	1	7	24	2	56	i	n	752.16	1	1000	1000	1	0
146	6	44	P	P	f	768.89	1	4	24	7	56	c	n	719.74	1	1000	1000	0	0
146	6	45	N	N	d	535.46	0	8	24	3	56	i	j	585.74	1	1000	100	1	0
146	6	46	P	P	f	753.15	1	2	24	7	56	c	n	719.25	1	100	1000	1	0
146	6	47	N	N	d	501.52	0	7	24	4	56	i	j	652.98	1	100	100	1	0
146	6	48	N	N	d	434.69	0	9	24	2	56	i	j	502.67	1	1000	100	0	0
146	6	49	N	N	d	418.96	0	3	24	9	56	c	n	536.1	1	1000	100	0	0
146	6	50	N	N	d	452.43	0	7	24	4	56	i	j	401.64	1	1000	1000	0	0
146	6	51	N	N	d	519.26	0	3	56	7	24	i	n	519.44	1	100	1000	0	0
146	6	52	P	P	f	552.4	1	4	56	7	24	i	j	585.3	1	1000	100	1	0
146	6	53	N	N	d	669.32	0	3	24	8	56	c	n	669.71	1	100	1000	1	0
146	6	54	P	P	f	485.28	1	2	24	8	56	c	n	636.49	1	1000	100	1	0
146	6	55	P	P	f	551.93	1	3	56	9	24	i	j	502.52	1	1000	1000	0	0
146	6	56	N	N	d	419.06	0	7	56	2	24	c	j	685.88	1	100	100	1	0
146	6	57	P	P	f	385.37	1	9	24	3	56	i	n	852.82	1	100	1000	1	0
146	6	58	N	N	d	469.03	0	2	24	8	56	c	n	618.34	1	100	100	1	0
146	6	59	P	P	f	718.98	1	3	24	7	56	c	n	619.49	1	100	100	1	0
146	6	60	P	P	f	702.57	1	4	24	7	56	c	n	502.34	1	1000	100	0	0
146	6	61	P	P	f	585.98	1	7	24	2	56	i	n	618.87	1	100	100	0	0
146	6	62	P	P	f	502.46	1	4	24	9	56	c	n	585.42	1	100	100	0	0
146	6	63	P	P	f	869.33	1	7	56	3	24	c	j	1502.92	1	100	1000	0	0
146	6	64	N	N	d	286.13	0	4	56	7	24	i	n	819.12	1	1000	1000	1	0
146	6	65	N	N	d	602.88	0	7	24	2	56	i	j	952.9	1	100	1000	0	0
