subj	block	trial	task_cue	task	choice_resp	choiceRT	choice_acc	topnum	topsize	botnum	botsize	cong	task_resp	taskRT	task_acc	RSI	CSI	altRep	E1
150	1	1	N	N	f	1487.27	0	7	56	2	24	c	j	4173.8	1	1000	100	-1	0
150	1	2	N	N	d	1370.74	0	8	24	4	56	i	j	1820.96	1	100	1000	0	0
150	1	3	P	P	f	1837.77	1	8	56	3	24	c	j	1186.91	1	1000	100	1	0
150	1	4	P	P	f	952.82	1	8	56	4	24	c	j	486.16	1	100	1000	0	0
150	1	5	N	N	d	1370.9	0	2	56	8	24	i	n	652.64	1	100	1000	1	0
150	1	6	N	N	d	1070.08	0	3	56	9	24	i	n	1053.41	1	1000	1000	0	0
150	1	7	N	N	d	1070.14	0	8	56	4	24	c	j	952.98	1	1000	1000	0	0
150	1	8	N	N	d	1019.63	0	3	24	8	56	c	n	1104.2	1	100	1000	0	0
150	1	9	N	N	d	1186.86	0	7	24	2	56	i	j	752.99	1	1000	1000	0	0
150	1	10	P	P	f	1137.22	1	8	24	4	56	i	n	1003.67	1	100	1000	1	0
150	1	11	P	P	f	1003.25	1	7	56	3	24	c	j	700.89	1	100	100	0	0
150	1	12	N	N	d	920.25	0	7	56	4	24	c	j	1104.0	1	1000	1000	1	0
150	1	13	P	P	f	986.97	1	8	24	2	56	i	n	4875.18	1	100	100	1	0
150	1	14	N	N	d	1120.08	0	9	24	3	56	i	j	653.66	1	100	100	1	0
150	1	15	P	P	f	586.72	1	9	24	2	56	i	n	1988.35	1	1000	1000	1	0
150	1	16	N	N	d	703.3	0	3	24	7	56	c	n	936.61	1	1000	1000	1	0
150	1	17	N	N	d	1320.2	0	8	56	4	24	c	j	1152.78	1	1000	100	0	0
150	1	18	P	P	f	920.29	1	7	56	3	24	c	j	702.97	1	1000	1000	1	0
150	1	19	P	P	f	953.4	1	4	56	8	24	i	n	769.98	0	100	100	0	0
150	1	20	N	N	d	853.0	0	7	24	2	56	i	j	2221.56	1	1000	100	1	1
150	1	21	N	N	d	952.54	0	3	56	7	24	i	n	1151.34	1	100	1000	0	0
150	1	22	N	N	d	853.19	0	9	24	4	56	i	j	786.06	1	100	100	0	0
150	1	23	N	N	d	854.11	0	2	56	8	24	i	n	686.33	1	100	100	0	0
150	1	24	P	P	f	1103.69	1	8	56	3	24	c	j	619.85	1	100	1000	1	0
150	1	25	N	N	d	1520.71	0	9	56	2	24	c	j	7977.95	1	1000	100	1	0
150	1	26	N	N	d	967.99	0	9	56	4	24	c	j	536.03	1	100	100	0	0
150	1	27	P	P	f	803.12	1	3	56	8	24	i	n	987.54	0	100	1000	1	0
150	1	28	P	P	f	886.82	1	9	56	2	24	c	j	4790.89	1	1000	1000	0	1
150	1	29	N	N	d	886.64	0	4	24	9	56	c	n	1954.92	1	100	100	1	0
150	1	30	P	P	f	853.27	1	2	24	9	56	c	n	8759.96	1	100	1000	1	0
150	1	31	P	P	f	1237.19	1	3	56	9	24	i	n	3673.51	0	100	1000	0	0
150	1	32	P	P	f	785.86	1	2	56	9	24	i	n	635.52	0	1000	100	0	1
150	1	33	P	P	f	1903.85	1	9	56	4	24	c	j	651.54	1	1000	100	0	1
150	1	34	P	P	f	852.55	1	2	24	7	56	c	n	568.81	1	1000	100	0	0
150	1	35	N	N	d	569.68	0	3	56	9	24	i	n	1437.6	1	1000	1000	1	0
150	1	36	N	N	d	819.79	0	4	24	8	56	c	n	719.71	1	1000	1000	0	0
150	1	37	P	P	f	853.34	1	3	24	8	56	c	n	569.91	1	1000	1000	1	0
150	1	38	P	P	f	886.63	1	9	24	2	56	i	n	736.39	1	100	1000	0	0
150	1	39	P	P	f	753.37	1	7	24	4	56	i	n	753.84	1	100	100	0	0
150	1	40	N	N	d	969.97	0	9	24	2	56	i	j	687.07	1	100	1000	1	0
150	1	41	P	P	f	786.67	1	4	56	7	24	i	j	8412.22	1	1000	1000	1	0
150	1	42	N	N	d	1287.2	0	3	24	8	56	c	n	1620.86	1	1000	100	1	0
150	1	43	N	N	d	1153.65	0	4	24	8	56	c	n	569.99	1	100	100	0	0
150	1	44	P	P	f	1136.94	1	8	24	2	56	i	n	2122.27	1	1000	100	1	0
150	1	45	P	P	f	1854.13	1	8	24	3	56	i	n	770.11	1	1000	100	0	0
150	1	46	N	N	d	853.2	0	4	24	7	56	c	n	585.51	1	100	1000	1	0
150	1	47	N	N	d	769.54	0	7	56	2	24	c	j	736.74	1	100	1000	0	0
150	1	48	N	N	d	852.38	0	3	56	8	24	i	n	903.37	1	1000	100	0	0
150	1	49	P	P	f	770.08	1	4	24	9	56	c	n	534.31	1	100	100	1	0
150	1	50	P	P	f	536.16	1	8	24	3	56	i	n	569.5	1	1000	1000	0	0
150	1	51	P	P	f	903.57	1	2	56	8	24	i	j	1103.77	1	1000	1000	0	0
150	1	52	N	N	d	669.59	0	8	56	3	24	c	j	717.88	1	100	100	1	0
150	1	53	P	P	f	1120.25	1	2	56	7	24	i	j	536.13	1	1000	100	1	0
150	1	54	P	P	f	653.15	1	4	24	7	56	c	n	419.53	1	100	1000	0	0
150	1	55	P	P	f	603.6	1	2	24	9	56	c	n	419.33	1	100	100	0	0
150	1	56	N	N	d	2338.48	0	8	24	3	56	i	j	769.67	1	1000	1000	1	0
150	1	57	P	P	f	703.55	1	7	56	4	24	c	j	786.7	1	100	100	1	0
150	1	58	N	N	d	653.34	0	3	56	8	24	i	n	769.58	1	100	100	1	0
150	1	59	P	P	f	470.05	1	4	24	7	56	c	n	1721.89	1	1000	100	1	0
150	1	60	P	P	f	785.94	1	3	24	9	56	c	n	503.54	1	1000	1000	0	0
150	1	61	N	N	d	669.73	0	7	56	2	24	c	j	536.21	1	100	1000	1	0
150	1	62	N	N	d	819.9	0	3	24	7	56	c	n	970.59	1	1000	100	0	0
150	1	63	N	N	d	1153.22	0	7	24	4	56	i	j	1053.48	1	1000	100	0	0
150	1	64	P	P	f	853.24	1	2	56	8	24	i	j	552.97	1	100	100	1	0
150	1	65	N	N	d	702.76	0	4	56	9	24	i	n	653.71	1	1000	100	1	0
150	2	1	N	N	d	1153.57	0	8	56	4	24	c	j	1721.8	1	100	1000	-1	0
150	2	2	P	P	f	6059.36	1	3	24	7	56	c	n	6442.79	1	1000	1000	1	0
150	2	3	N	N	d	1020.93	0	8	56	4	24	c	j	1203.36	1	100	100	1	0
150	2	4	N	N	d	1069.75	0	2	24	8	56	c	n	536.21	1	100	100	0	0
150	2	5	N	N	d	753.26	0	4	24	7	56	c	n	517.44	1	1000	100	0	0
150	2	6	P	P	f	1003.28	1	2	56	9	24	i	j	903.77	1	1000	1000	1	0
150	2	7	N	N	d	1137.15	0	4	56	8	24	i	n	685.73	1	100	100	1	0
150	2	8	N	N	d	1036.89	0	8	56	3	24	c	j	719.55	1	100	100	0	0
150	2	9	N	N	d	870.09	0	9	56	4	24	c	j	653.0	1	1000	100	0	0
150	2	10	P	P	f	786.49	1	2	24	7	56	c	n	686.99	1	100	1000	1	0
150	2	11	P	P	f	1721.0	1	3	56	9	24	i	j	1854.35	1	1000	100	0	0
150	2	12	P	P	f	1170.3	1	2	24	8	56	c	n	519.3	1	100	100	0	0
150	2	13	N	N	d	736.55	0	3	56	7	24	i	n	801.54	1	100	1000	1	0
150	2	14	P	P	f	669.47	1	9	56	2	24	c	j	452.8	1	1000	100	1	0
150	2	15	N	N	d	753.46	0	7	24	3	56	i	j	670.37	1	100	100	1	0
150	2	16	N	N	d	1303.48	0	7	24	2	56	i	j	719.23	1	1000	100	0	0
150	2	17	P	P	f	734.76	1	4	24	9	56	c	n	687.11	1	1000	100	1	0
150	2	18	P	P	f	752.94	1	2	24	8	56	c	n	519.82	1	1000	100	0	0
150	2	19	P	P	f	584.28	1	7	56	4	24	c	j	553.51	1	100	100	0	0
150	2	20	P	P	f	751.19	1	2	56	7	24	i	j	687.09	1	1000	1000	0	0
150	2	21	N	N	d	653.29	0	8	24	3	56	i	j	637.04	1	100	1000	1	0
150	2	22	P	P	f	703.82	1	4	24	8	56	c	n	904.16	1	100	100	1	0
150	2	23	P	P	f	1337.39	1	9	56	3	24	c	j	800.93	1	100	1000	0	0
150	2	24	N	N	d	753.45	0	2	24	7	56	c	n	12733.58	1	100	1000	1	0
150	2	25	N	N	d	752.75	0	3	56	7	24	i	n	703.35	1	1000	1000	0	0
150	2	26	P	P	f	687.25	1	2	56	7	24	i	j	652.99	1	100	1000	1	0
150	2	27	P	P	f	3122.42	1	7	56	3	24	c	j	2338.54	1	1000	1000	0	0
150	2	28	P	P	f	853.27	1	7	24	2	56	i	j	6109.62	0	1000	1000	0	0
150	2	29	P	P	f	1721.07	1	9	24	3	56	i	n	10597.83	1	1000	100	0	1
150	2	30	P	P	f	1937.86	1	4	56	9	24	i	j	1553.76	1	100	100	0	0
150	2	31	P	P	f	1086.74	1	8	24	2	56	i	n	987.17	1	100	1000	0	0
150	2	32	N	N	d	2052.76	0	4	56	7	24	i	n	1754.86	1	1000	100	1	0
150	2	33	N	N	d	4824.25	0	9	56	2	24	c	j	2289.01	1	1000	1000	0	0
150	2	34	N	N	d	903.35	0	4	56	7	24	i	n	1120.48	1	100	1000	0	0
150	2	35	P	P	f	936.3	1	7	24	2	56	i	n	1487.7	1	100	100	1	0
150	2	36	N	N	d	1187.12	0	3	24	7	56	c	n	803.76	1	1000	100	1	0
150	2	37	P	P	f	769.88	1	9	56	4	24	c	j	486.7	1	100	100	1	0
150	2	38	N	N	d	753.25	0	3	24	7	56	c	n	1170.45	1	100	100	1	0
150	2	39	N	N	d	1288.06	0	8	24	4	56	i	j	553.14	1	100	1000	0	0
150	2	40	N	N	d	619.72	0	3	56	7	24	i	n	603.28	1	100	100	0	0
150	2	41	P	P	f	817.65	1	2	56	7	24	i	j	867.53	1	1000	100	1	0
150	2	42	P	P	f	953.49	1	7	24	4	56	i	n	535.8	1	100	100	0	0
150	2	43	P	P	f	567.52	1	3	56	9	24	i	j	968.31	1	100	1000	0	0
150	2	44	N	N	d	1220.22	0	7	24	4	56	i	n	752.41	0	1000	100	1	0
150	2	45	P	P	f	1285.25	1	8	24	2	56	i	n	3039.5	1	1000	100	1	1
150	2	46	N	N	d	903.34	0	9	24	3	56	i	j	684.73	1	1000	1000	1	0
150	2	47	P	P	f	769.91	1	2	56	7	24	i	j	937.34	1	100	100	1	0
150	2	48	P	P	f	1419.0	1	3	24	8	56	c	n	686.63	1	100	1000	0	0
150	2	49	P	P	f	969.21	1	2	24	7	56	c	n	820.21	1	1000	1000	0	0
150	2	50	N	N	d	619.72	0	3	24	7	56	c	n	753.26	1	1000	1000	1	0
150	2	51	N	N	d	1153.51	0	9	56	4	24	c	j	1737.64	1	100	1000	0	0
150	2	52	N	N	d	870.0	0	7	24	3	56	i	j	1504.98	1	1000	1000	0	0
150	2	53	P	P	f	920.9	1	7	56	2	24	c	j	2422.34	1	100	1000	1	0
150	2	54	P	P	f	1520.81	1	7	56	4	24	c	j	3289.47	1	1000	100	0	0
150	2	55	N	N	d	1136.42	0	2	56	9	24	i	n	1554.15	1	1000	1000	1	0
150	2	56	P	P	f	1020.14	1	7	56	3	24	c	j	586.32	1	1000	1000	1	0
150	2	57	N	N	d	853.36	0	7	56	2	24	c	j	669.56	1	1000	100	1	0
150	2	58	P	P	f	703.52	1	7	24	3	56	i	n	419.01	1	100	1000	1	0
150	2	59	N	N	d	770.16	0	7	56	2	24	c	j	620.12	1	100	1000	1	0
150	2	60	N	N	d	886.65	0	9	24	4	56	i	j	670.18	1	100	100	0	0
150	2	61	P	P	f	618.77	1	9	24	2	56	i	n	1137.17	1	1000	1000	1	0
150	2	62	N	N	d	836.54	0	7	56	3	24	c	j	519.59	1	1000	1000	1	0
150	2	63	N	N	d	769.64	0	4	56	7	24	i	n	970.54	1	1000	100	0	0
150	2	64	N	N	d	669.59	0	3	24	7	56	c	n	786.99	1	1000	1000	0	0
150	2	65	N	N	d	619.57	0	4	24	7	56	c	n	669.91	1	100	1000	0	0
150	3	1	N	N	d	1118.35	0	9	24	4	56	i	j	720.67	1	1000	100	-1	0
150	3	2	P	P	f	653.07	1	2	24	7	56	c	n	419.73	1	1000	1000	1	0
150	3	3	P	P	f	736.46	1	8	24	4	56	i	n	769.94	1	1000	1000	0	0
150	3	4	N	N	d	703.16	0	3	24	7	56	c	n	587.09	1	100	100	1	0
150	3	5	P	P	f	719.55	1	7	56	4	24	c	j	536.66	1	100	1000	1	0
150	3	6	P	P	f	886.61	1	3	24	7	56	c	n	653.04	1	1000	1000	0	0
150	3	7	P	P	f	869.15	1	2	24	7	56	c	n	402.65	1	100	1000	0	0
150	3	8	P	P	f	736.38	1	8	56	4	24	c	j	503.05	1	100	100	0	0
150	3	9	P	P	f	535.8	1	8	24	3	56	i	n	503.11	1	100	1000	0	0
150	3	10	N	N	d	636.18	0	9	24	2	56	i	j	903.63	1	100	1000	1	0
150	3	11	P	P	f	1887.23	1	9	24	3	56	i	n	503.38	1	1000	100	1	0
150	3	12	N	N	d	667.79	0	9	56	4	24	c	j	518.65	1	1000	100	1	0
150	3	13	N	N	d	1203.75	0	3	24	9	56	c	n	500.57	1	1000	100	0	0
150	3	14	P	P	f	987.28	1	7	56	2	24	c	j	1621.05	1	1000	1000	1	0
150	3	15	N	N	d	719.96	0	4	24	7	56	c	n	486.27	1	1000	100	1	0
150	3	16	N	N	d	920.15	0	2	24	7	56	c	n	419.5	1	100	100	0	0
150	3	17	N	N	d	853.24	0	4	24	7	56	c	n	753.23	1	1000	1000	0	0
150	3	18	N	N	d	753.24	0	8	24	3	56	i	j	2004.96	1	100	1000	0	0
150	3	19	N	N	d	619.42	0	8	24	2	56	i	j	536.33	1	1000	100	0	0
150	3	20	P	P	f	669.67	1	7	24	4	56	i	n	619.25	1	100	1000	1	0
150	3	21	P	P	f	1487.3	1	7	56	2	24	c	j	503.55	1	100	1000	0	0
150	3	22	N	N	d	553.7	0	9	24	3	56	i	j	803.48	1	100	100	1	0
150	3	23	N	N	d	1120.37	0	7	56	2	24	c	j	803.42	1	100	100	0	0
150	3	24	P	P	f	720.13	1	4	24	7	56	c	n	853.17	1	100	1000	1	0
150	3	25	P	P	f	1352.83	1	2	24	9	56	c	n	1418.96	1	1000	100	0	0
150	3	26	N	N	d	1220.53	0	3	56	9	24	i	n	1036.47	1	1000	100	1	0
150	3	27	P	P	f	1454.11	1	7	24	2	56	i	n	904.06	1	1000	1000	1	0
150	3	28	N	N	d	1337.45	0	3	56	8	24	i	n	1003.12	1	100	100	1	0
150	3	29	N	N	d	1387.36	0	9	56	2	24	c	j	1170.15	1	100	1000	0	0
150	3	30	N	N	d	1303.38	0	4	24	8	56	c	n	3005.78	1	100	1000	0	0
150	3	31	N	N	d	3070.04	0	8	24	2	56	i	j	553.62	1	1000	1000	0	0
150	3	32	P	P	f	851.4	1	3	56	8	24	i	j	1170.18	1	1000	1000	1	0
150	3	33	P	P	f	935.98	1	4	56	7	24	i	j	1020.83	1	100	1000	0	0
150	3	34	N	N	d	853.35	0	9	24	2	56	i	j	1904.76	1	1000	100	1	0
150	3	35	P	P	f	987.04	1	3	56	7	24	i	j	1037.21	1	1000	100	1	0
150	3	36	N	N	d	619.48	0	4	56	9	24	i	n	1254.59	1	1000	1000	1	0
150	3	37	P	P	f	752.82	1	3	24	7	56	c	n	735.63	1	100	100	1	0
150	3	38	N	N	d	903.54	0	2	24	7	56	c	n	718.02	1	1000	1000	1	0
150	3	39	N	N	d	1885.98	0	3	56	9	24	i	n	1387.76	1	1000	100	0	0
150	3	40	P	P	f	869.28	1	8	56	2	24	c	j	469.52	1	100	100	1	0
150	3	41	P	P	f	953.2	1	7	24	3	56	i	n	953.11	1	100	100	0	0
150	3	42	N	N	d	636.66	0	2	24	8	56	c	n	5475.82	1	100	1000	1	0
150	3	43	N	N	d	903.58	0	9	24	3	56	i	j	1787.98	1	100	100	0	0
150	3	44	N	N	d	602.49	0	8	56	2	24	c	j	1337.52	1	1000	100	0	0
150	3	45	P	P	f	619.98	1	3	56	9	24	i	j	602.31	1	100	100	1	0
150	3	46	P	P	f	903.57	1	2	56	7	24	i	j	770.63	1	1000	1000	0	0
150	3	47	P	P	f	669.64	1	9	24	4	56	i	n	702.86	1	1000	100	0	0
150	3	48	N	N	d	553.07	0	8	56	2	24	c	j	453.51	1	1000	1000	1	0
150	3	49	P	P	f	552.86	1	9	24	4	56	i	n	752.96	1	100	100	1	0
150	3	50	P	P	f	586.27	1	8	56	2	24	c	j	552.74	1	1000	1000	0	0
150	3	51	P	P	f	619.6	1	3	56	7	24	i	j	870.34	1	100	100	0	0
150	3	52	P	P	f	519.6	1	4	24	8	56	c	n	553.43	1	100	100	0	0
150	3	53	N	N	d	603.1	0	3	56	8	24	i	n	820.31	1	100	1000	1	0
150	3	54	N	N	d	669.55	0	4	56	8	24	i	n	1487.47	1	100	100	0	0
150	3	55	N	N	d	686.49	0	3	56	7	24	i	n	603.62	1	100	1000	0	0
150	3	56	P	P	f	569.09	1	7	56	4	24	c	j	585.06	1	1000	100	1	0
150	3	57	N	N	d	603.33	0	7	56	2	24	c	n	752.95	0	100	100	1	0
150	3	58	N	N	d	1086.7	0	7	56	3	24	c	j	502.82	1	1000	1000	0	1
150	3	59	P	P	f	586.42	1	2	56	9	24	i	j	569.31	1	100	1000	1	0
150	3	60	P	P	f	1285.49	1	7	56	4	24	c	j	737.01	1	1000	100	0	0
150	3	61	P	P	f	736.53	1	3	56	7	24	i	j	520.22	1	1000	100	0	0
150	3	62	N	N	d	786.46	0	7	24	2	56	i	j	937.01	1	1000	1000	1	0
150	3	63	P	P	f	619.41	1	4	24	7	56	c	n	536.72	1	1000	100	1	0
150	3	64	N	N	d	636.68	0	9	56	2	24	c	j	503.56	1	100	1000	1	0
150	3	65	N	N	d	736.31	0	3	56	9	24	i	n	884.59	1	1000	1000	0	0
150	4	1	P	P	f	2856.26	1	2	56	8	24	i	j	1104.3	1	100	100	-1	0
150	4	2	P	P	f	619.88	1	7	24	3	56	i	n	752.84	1	100	1000	0	0
150	4	3	P	P	f	1184.91	1	4	56	7	24	i	j	553.64	1	1000	100	0	0
150	4	4	N	N	d	636.39	0	8	56	2	24	c	j	586.17	1	1000	100	1	0
150	4	5	N	N	d	586.4	0	8	56	3	24	c	j	469.99	1	100	100	0	0
150	4	6	P	P	f	436.57	1	9	56	4	24	c	j	353.51	1	1000	1000	1	0
150	4	7	N	N	d	536.21	0	3	56	8	24	i	n	535.9	1	100	1000	1	0
150	4	8	P	P	f	603.52	1	7	56	4	24	c	j	502.7	1	100	100	1	0
150	4	9	P	P	f	585.82	1	7	24	2	56	i	n	552.94	1	1000	1000	0	0
150	4	10	N	N	d	586.62	0	7	24	3	56	i	n	486.56	0	1000	1000	1	0
150	4	11	P	P	f	1053.59	1	4	24	9	56	c	n	769.79	1	1000	100	1	1
150	4	12	P	P	f	684.56	1	9	56	3	24	c	j	569.67	1	1000	100	0	0
150	4	13	N	N	d	569.91	0	2	56	7	24	i	n	603.09	1	100	100	1	0
150	4	14	N	N	d	786.01	0	4	56	7	24	i	n	519.78	1	100	100	0	0
150	4	15	N	N	d	452.65	0	3	24	8	56	c	n	436.34	1	100	1000	0	0
150	4	16	P	P	f	569.31	1	4	24	9	56	c	n	503.29	1	100	100	1	0
150	4	17	N	N	d	470.3	0	9	24	3	56	i	j	801.4	1	100	1000	1	0
150	4	18	P	P	f	436.17	1	2	56	7	24	i	j	769.58	1	1000	100	1	0
150	4	19	N	N	d	670.12	0	9	24	3	56	i	j	634.82	1	100	100	1	0
150	4	20	N	N	d	736.35	0	8	56	2	24	c	j	670.35	1	100	1000	0	0
150	4	21	N	N	d	569.95	0	7	24	4	56	i	j	703.54	1	100	100	0	0
150	4	22	P	P	f	717.93	1	2	56	8	24	i	j	586.89	1	100	100	1	0
150	4	23	N	N	d	452.7	0	3	56	7	24	i	n	736.18	1	1000	100	1	0
150	4	24	N	N	d	620.75	0	9	56	2	24	c	j	553.08	1	1000	1000	0	0
150	4	25	N	N	d	402.82	0	7	24	4	56	i	j	769.84	1	1000	1000	0	0
150	4	26	P	P	f	636.62	1	8	56	3	24	c	j	603.6	1	100	1000	1	0
150	4	27	P	P	f	886.81	1	2	56	9	24	i	n	619.59	0	100	100	0	0
150	4	28	P	P	f	719.96	1	9	24	3	56	i	n	453.48	1	1000	100	0	1
150	4	29	P	P	f	652.65	1	4	24	7	56	c	n	484.52	1	100	1000	0	0
150	4	30	N	N	d	670.06	0	7	56	3	24	c	j	969.9	1	100	1000	1	0
150	4	31	P	P	f	636.03	1	8	24	2	56	i	n	1036.87	1	1000	100	1	0
150	4	32	P	P	f	719.83	1	4	56	7	24	i	j	602.71	1	100	1000	0	0
150	4	33	P	P	f	670.42	1	2	56	9	24	i	j	904.09	1	1000	1000	0	0
150	4	34	N	N	d	619.99	0	3	24	8	56	c	n	636.3	1	100	100	1	0
150	4	35	N	N	d	651.9	0	4	56	7	24	i	n	3723.94	1	1000	100	0	0
150	4	36	P	P	f	736.84	1	3	56	7	24	i	j	436.23	1	100	1000	1	0
150	4	37	P	P	f	853.39	1	4	24	8	56	c	n	4340.95	1	1000	100	0	0
150	4	38	P	P	f	636.34	1	8	56	2	24	c	j	636.03	1	100	1000	0	0
150	4	39	N	N	d	1187.19	0	9	24	3	56	i	j	1938.44	1	1000	100	1	0
150	4	40	P	P	f	1235.24	1	9	56	2	24	c	j	3589.88	1	1000	100	1	0
150	4	41	N	N	d	1086.61	0	7	56	4	24	c	j	1036.99	1	100	100	1	0
150	4	42	N	N	d	1003.4	0	7	24	3	56	i	j	1036.9	1	1000	100	0	0
150	4	43	P	P	f	936.12	1	4	24	7	56	c	n	552.68	1	1000	1000	1	0
150	4	44	N	N	d	636.64	0	8	56	3	24	c	j	952.56	1	1000	1000	1	0
150	4	45	P	P	f	753.31	1	7	24	4	56	i	n	433.75	1	100	1000	1	0
150	4	46	N	N	d	636.39	0	3	24	7	56	c	n	770.87	1	100	1000	1	0
150	4	47	N	N	d	1586.87	0	2	24	9	56	c	n	1437.8	1	100	100	0	0
150	4	48	N	N	d	819.79	0	3	24	7	56	c	n	703.18	1	1000	1000	0	0
150	4	49	N	N	d	836.99	0	4	24	9	56	c	n	803.34	1	1000	100	0	0
150	4	50	P	P	f	1270.61	1	3	56	9	24	i	j	1337.39	1	1000	1000	1	0
150	4	51	N	N	d	1070.41	0	4	24	9	56	c	n	819.88	1	1000	100	1	0
150	4	52	N	N	d	769.84	0	8	24	3	56	i	j	3205.39	1	100	1000	0	0
150	4	53	N	N	d	919.48	0	7	56	2	24	c	j	653.86	1	1000	100	0	0
150	4	54	N	N	d	536.65	0	4	56	7	24	i	n	953.28	1	100	1000	0	0
150	4	55	N	N	d	603.06	0	2	56	7	24	i	n	535.31	1	1000	1000	0	0
150	4	56	P	P	f	853.58	1	8	24	3	56	i	n	836.65	1	100	100	1	0
150	4	57	N	N	d	886.32	0	2	24	9	56	c	n	820.26	1	1000	1000	1	0
150	4	58	P	P	f	1203.98	1	9	24	3	56	i	n	1003.83	1	1000	1000	1	0
150	4	59	P	P	f	736.54	1	2	24	7	56	c	n	653.71	1	100	100	0	0
150	4	60	P	P	f	502.79	1	8	56	3	24	c	j	1320.62	1	1000	1000	0	0
150	4	61	P	P	f	902.62	1	9	56	4	24	c	j	419.21	1	100	100	0	0
150	4	62	N	N	d	485.71	0	3	56	8	24	i	n	586.21	1	1000	1000	1	0
150	4	63	P	P	d	619.98	1	2	24	8	56	c	n	2305.68	1	100	1000	1	0
150	4	64	P	P	f	1570.77	1	9	24	3	56	i	n	703.64	1	100	100	0	0
150	4	65	P	P	f	920.01	1	2	24	7	56	c	n	619.62	1	1000	1000	0	0
150	5	1	N	N	d	1019.42	0	8	56	4	24	c	j	787.41	1	100	100	-1	0
150	5	2	P	P	f	686.56	1	7	24	3	56	i	n	536.9	1	1000	1000	1	0
150	5	3	N	N	d	770.2	0	7	24	4	56	i	j	836.93	1	100	100	1	0
150	5	4	P	P	f	1203.21	1	7	56	3	24	c	j	1837.18	1	1000	100	1	0
150	5	5	P	P	f	886.37	1	7	24	4	56	i	n	686.47	1	1000	1000	0	0
150	5	6	N	N	d	669.61	0	7	56	3	24	c	j	469.71	1	100	100	1	0
150	5	7	N	N	d	619.62	0	2	56	7	24	i	n	1103.82	1	1000	1000	0	0
150	5	8	N	N	d	903.29	0	8	56	3	24	c	j	854.22	1	100	100	0	0
150	5	9	P	P	f	1020.33	1	7	56	4	24	c	j	703.16	1	100	1000	1	0
150	5	10	P	P	f	1120.07	1	7	56	3	24	c	j	4657.42	1	1000	100	0	0
150	5	11	P	P	f	919.88	1	2	56	9	24	i	j	353.15	1	1000	1000	0	0
150	5	12	N	N	d	619.31	0	9	24	3	56	i	j	617.96	1	1000	100	1	0
150	5	13	P	P	d	586.66	1	7	56	2	24	c	j	2304.51	1	100	100	1	0
150	5	14	P	P	f	953.45	1	3	24	9	56	c	n	634.47	1	1000	100	0	0
150	5	15	N	N	d	569.62	0	2	24	8	56	c	n	686.7	1	1000	1000	1	0
150	5	16	P	P	f	802.75	1	4	24	7	56	c	n	920.21	1	100	100	1	0
150	5	17	P	P	f	919.84	1	3	56	8	24	i	j	1137.55	1	1000	100	0	0
150	5	18	P	P	f	552.94	1	9	24	2	56	i	n	486.63	1	100	100	0	0
150	5	19	P	P	f	653.01	1	4	24	9	56	c	n	486.26	1	100	100	0	0
150	5	20	P	P	f	1585.32	1	7	56	2	24	c	j	1470.07	1	1000	1000	0	0
150	5	21	N	N	d	1220.09	0	4	56	9	24	i	n	769.32	1	100	100	1	0
150	5	22	P	P	f	869.88	1	2	56	7	24	i	n	886.65	0	100	1000	1	0
150	5	23	P	P	f	2753.44	1	3	56	7	24	i	j	4438.63	1	100	1000	0	1
150	5	24	P	P	f	1153.53	1	2	24	9	56	c	n	903.95	1	100	1000	0	0
150	5	25	N	N	d	853.26	0	7	56	4	24	c	j	7477.27	1	100	1000	1	0
150	5	26	N	N	d	719.73	0	2	24	7	56	c	n	1234.74	1	1000	1000	0	0
150	5	27	N	N	d	569.9	0	4	56	9	24	i	n	701.48	1	1000	100	0	0
150	5	28	P	P	f	851.69	1	7	24	2	56	i	n	453.11	1	100	100	1	0
150	5	29	N	N	d	435.8	0	4	56	9	24	i	n	603.36	1	1000	100	1	0
150	5	30	P	P	f	386.06	1	9	24	3	56	i	n	870.22	1	1000	100	1	0
150	5	31	N	N	d	569.69	0	4	24	7	56	c	n	503.4	1	100	100	1	0
150	5	32	N	N	d	686.2	0	7	24	3	56	i	j	920.53	1	1000	100	0	0
150	5	33	P	P	f	619.78	1	2	24	9	56	c	n	452.94	1	100	1000	1	0
150	5	34	P	P	f	637.01	1	8	56	3	24	c	j	469.08	1	100	100	0	0
150	5	35	P	P	f	736.46	1	8	24	4	56	i	n	652.43	1	1000	100	0	0
150	5	36	P	P	f	719.86	1	3	24	7	56	c	n	618.19	1	1000	1000	0	0
150	5	37	P	P	f	602.95	1	2	56	7	24	i	j	536.41	1	100	100	0	0
150	5	38	N	N	d	503.2	0	7	24	3	56	i	j	568.04	1	1000	1000	1	0
150	5	39	P	P	f	620.06	1	8	24	4	56	i	n	1337.81	1	100	1000	1	0
150	5	40	P	P	f	984.9	1	8	56	3	24	c	j	1988.1	1	100	1000	0	0
150	5	41	N	N	d	586.29	0	7	24	2	56	i	j	620.29	1	100	1000	1	0
150	5	42	P	P	f	1003.27	1	9	56	3	24	c	j	1471.14	1	1000	1000	1	0
150	5	43	P	P	f	869.51	1	7	24	4	56	i	n	486.07	1	100	1000	0	0
150	5	44	N	N	d	784.55	0	2	56	8	24	i	n	1554.96	1	100	1000	1	0
150	5	45	P	P	f	920.19	1	4	24	7	56	c	n	3423.23	1	1000	1000	1	0
150	5	46	N	N	d	920.33	0	3	24	7	56	c	n	1170.36	1	100	1000	1	0
150	5	47	N	N	d	1353.94	0	4	24	9	56	c	n	853.51	1	100	1000	0	0
150	5	48	N	N	d	969.24	0	3	24	7	56	c	n	820.49	1	1000	100	0	0
150	5	49	P	P	f	870.31	1	4	56	8	24	i	j	570.02	1	1000	1000	1	0
150	5	50	N	N	d	986.91	0	8	56	3	24	c	j	1087.26	1	1000	100	1	0
150	5	51	N	N	d	853.47	0	4	56	9	24	i	n	2138.65	1	100	1000	0	0
150	5	52	N	N	d	937.77	0	9	56	3	24	c	j	752.13	1	1000	100	0	0
150	5	53	N	N	d	503.01	0	8	56	4	24	c	j	485.78	1	1000	1000	0	0
150	5	54	N	N	d	536.45	0	9	24	3	56	i	j	670.0	1	100	1000	0	0
150	5	55	N	N	d	1036.54	0	7	24	2	56	i	j	1387.37	1	1000	1000	0	0
150	5	56	P	P	f	1069.8	1	4	56	7	24	i	j	1169.4	1	1000	100	1	0
150	5	57	N	N	d	886.82	0	9	56	3	24	c	j	1086.93	1	1000	1000	1	0
150	5	58	N	N	d	903.46	0	4	24	7	56	c	n	952.08	1	100	100	0	0
150	5	59	N	N	d	686.55	0	7	24	3	56	i	j	754.17	1	100	100	0	0
150	5	60	P	P	f	619.39	1	4	56	7	24	i	j	1387.64	1	100	100	1	0
150	5	61	N	N	d	1186.88	0	2	56	9	24	i	n	2372.09	1	1000	1000	1	0
150	5	62	N	N	d	736.53	0	7	56	3	24	c	j	702.77	1	100	1000	0	0
150	5	63	P	P	f	502.79	1	2	24	8	56	c	n	519.62	1	1000	100	1	0
150	5	64	N	N	d	903.11	0	4	24	8	56	c	n	1087.25	1	1000	100	1	0
150	5	65	N	N	d	803.26	0	2	56	8	24	i	n	902.86	1	100	100	0	0
150	6	1	P	P	f	1287.36	1	9	56	3	24	c	j	401.0	1	100	100	-1	0
150	6	2	N	N	d	669.92	0	2	24	9	56	c	n	602.98	1	1000	1000	1	0
150	6	3	P	P	f	936.64	1	7	56	4	24	c	j	1203.72	1	100	1000	1	0
150	6	4	P	P	f	1053.4	1	7	24	3	56	i	n	1469.15	1	1000	100	0	0
150	6	5	N	N	d	703.09	0	4	56	8	24	i	n	602.15	1	100	100	1	0
150	6	6	P	P	f	736.66	1	8	24	3	56	i	n	886.7	1	1000	100	1	0
150	6	7	P	P	f	669.66	1	4	56	9	24	i	j	1303.65	1	1000	1000	0	0
150	6	8	P	P	f	1303.44	1	8	24	3	56	i	n	1187.36	1	1000	1000	0	0
150	6	9	N	N	d	620.2	0	2	56	8	24	i	n	1304.52	1	100	1000	1	0
150	6	10	N	N	d	836.31	0	3	56	8	24	i	n	902.98	1	100	100	0	0
150	6	11	N	N	d	518.78	0	2	56	7	24	i	n	653.84	1	1000	1000	0	0
150	6	12	N	N	d	652.4	0	7	56	3	24	c	j	853.75	1	100	100	0	0
150	6	13	P	P	f	920.25	1	4	24	9	56	c	n	486.64	1	1000	1000	1	0
150	6	14	P	P	f	853.16	1	2	56	7	24	i	j	569.99	1	100	100	0	0
150	6	15	N	N	d	636.84	0	7	56	4	24	c	j	653.49	1	100	100	1	0
150	6	16	P	P	f	635.99	1	9	56	2	24	c	j	754.11	1	100	100	1	0
150	6	17	N	N	d	402.6	0	7	56	3	24	c	j	600.78	1	1000	100	1	0
150	6	18	P	P	f	367.95	1	2	56	7	24	i	j	636.09	1	1000	100	1	0
150	6	19	P	P	f	536.18	1	9	56	3	24	c	j	403.44	1	100	1000	0	0
150	6	20	P	P	f	586.61	1	2	56	8	24	i	j	384.18	1	100	1000	0	0
150	6	21	N	N	d	602.97	0	8	24	4	56	i	j	603.92	1	100	1000	1	0
150	6	22	N	N	d	534.05	0	9	24	3	56	i	j	720.56	1	1000	100	0	0
150	6	23	P	P	f	553.04	1	2	56	7	24	i	j	336.45	1	100	1000	1	0
150	6	24	N	N	d	436.57	0	7	56	4	24	c	j	500.56	1	1000	1000	1	0
150	6	25	N	N	d	602.9	0	8	56	2	24	c	j	420.11	1	1000	1000	0	0
150	6	26	P	P	f	603.18	1	4	24	7	56	c	n	567.65	1	100	100	1	0
150	6	27	N	N	d	586.1	0	3	24	8	56	c	n	603.34	1	100	100	1	0
150	6	28	P	P	f	519.78	1	9	24	2	56	i	j	603.45	0	100	100	1	0
150	6	29	P	P	d	335.67	1	7	56	4	24	c	j	2689.13	1	1000	100	0	1
150	6	30	P	P	f	1852.37	1	2	24	9	56	c	n	2121.13	1	1000	100	0	0
150	6	31	P	P	f	686.31	1	4	24	8	56	c	n	1069.99	1	100	100	0	0
150	6	32	P	P	f	419.23	1	3	24	9	56	c	n	303.08	1	1000	1000	0	0
150	6	33	N	N	d	603.42	0	2	24	9	56	c	n	1269.92	1	100	1000	1	0
150	6	34	N	N	d	669.81	0	9	24	3	56	i	j	1621.38	1	100	1000	0	0
150	6	35	N	N	d	502.58	0	4	56	7	24	i	n	719.55	1	1000	100	0	0
150	6	36	N	N	d	586.02	0	8	24	3	56	i	j	4007.47	1	1000	1000	0	0
150	6	37	N	N	d	418.84	0	2	24	7	56	c	n	820.53	1	1000	100	0	0
150	6	38	P	P	f	602.49	1	3	56	9	24	i	j	1287.05	1	100	100	1	0
150	6	39	N	N	d	1203.56	0	8	24	4	56	i	j	1187.42	1	100	100	1	0
150	6	40	N	N	d	620.26	0	3	56	7	24	i	n	720.33	1	100	1000	0	0
150	6	41	N	N	d	703.05	0	2	24	7	56	c	n	719.82	1	100	100	0	0
150	6	42	P	P	f	754.11	1	4	24	8	56	c	n	603.33	1	1000	100	1	0
150	6	43	N	N	d	603.1	0	9	24	3	56	i	j	619.99	1	1000	100	1	0
150	6	44	P	P	f	853.48	1	7	24	4	56	i	n	653.5	1	100	1000	1	0
150	6	45	N	N	d	3539.66	0	9	56	2	24	c	j	1604.58	1	100	1000	1	0
150	6	46	N	N	d	653.03	0	8	56	3	24	c	j	602.2	1	1000	100	0	0
150	6	47	P	P	f	534.43	1	4	24	8	56	c	n	520.31	1	100	1000	1	0
150	6	48	P	P	f	636.5	1	7	56	3	24	c	j	501.06	1	100	100	0	0
150	6	49	P	P	f	503.15	1	4	24	7	56	c	n	319.15	1	100	1000	0	0
150	6	50	P	P	f	369.28	1	9	56	3	24	c	j	518.12	1	1000	1000	0	0
150	6	51	P	P	f	503.11	1	7	24	4	56	i	n	402.07	1	100	1000	0	0
150	6	52	N	N	f	302.44	0	2	56	7	24	i	n	1554.37	1	1000	100	1	0
150	6	53	N	N	d	619.57	0	3	24	9	56	c	n	1236.97	1	100	1000	0	0
150	6	54	P	P	f	1354.18	1	7	24	4	56	i	n	4824.75	1	1000	1000	1	0
150	6	55	P	P	f	753.07	1	2	56	7	24	i	j	669.69	1	1000	100	0	0
150	6	56	N	N	d	1487.29	0	8	24	3	56	i	j	1337.61	1	1000	1000	1	0
150	6	57	N	N	d	469.61	0	2	24	7	56	c	n	1337.7	1	1000	1000	0	0
150	6	58	P	P	f	753.07	1	9	56	4	24	c	j	1151.85	1	1000	1000	1	0
150	6	59	N	N	d	1186.81	0	2	24	9	56	c	n	1453.92	1	1000	100	1	0
150	6	60	N	N	d	553.0	0	8	56	4	24	c	j	503.54	1	100	1000	0	0
150	6	61	N	N	d	553.13	0	7	24	2	56	i	j	619.26	1	100	100	0	0
150	6	62	P	P	f	586.69	1	4	56	9	24	i	j	2105.01	1	1000	1000	1	0
150	6	63	N	N	d	469.73	0	3	56	8	24	i	n	970.38	1	1000	1000	1	0
150	6	64	P	P	f	602.69	1	7	56	4	24	c	j	1020.05	1	1000	100	1	0
150	6	65	P	P	f	569.8	1	8	24	3	56	i	n	467.19	1	100	100	0	0
