subj	block	trial	task_cue	task	choice_resp	choiceRT	choice_acc	topnum	topsize	botnum	botsize	cong	task_resp	taskRT	task_acc	RSI	CSI	altRep	E1
153	1	1	?	N	f	535.52	NA	8	56	2	24	c	j	535.87	1	100	1000	-1	0
153	1	2	?	N	f	1036.27	NA	3	56	7	24	i	n	752.44	1	100	100	0	0
153	1	3	?	P	d	1086.26	NA	7	24	4	56	i	n	552.22	1	100	1000	0	0
153	1	4	?	N	f	568.68	NA	2	24	9	56	c	n	719.06	1	1000	1000	0	0
153	1	5	?	N	f	1803.84	NA	7	24	3	56	i	j	702.8	1	100	1000	0	0
153	1	6	?	P	d	135.0	NA	2	24	9	56	c	n	552.15	1	1000	1000	0	0
153	1	7	?	P	d	335.7	NA	4	56	8	24	i	j	385.48	1	1000	1000	0	0
153	1	8	?	P	d	1303.26	NA	2	56	9	24	i	n	936.02	0	100	100	0	0
153	1	9	?	N	f	1169.24	NA	7	56	4	24	c	j	902.96	1	100	100	0	1
153	1	10	?	P	d	452.22	NA	8	24	3	56	i	n	936.7	1	1000	1000	0	0
153	1	11	?	N	f	1620.13	NA	7	24	4	56	i	j	735.39	1	100	100	0	0
153	1	12	?	N	f	535.77	NA	2	56	7	24	i	n	919.53	1	1000	100	0	0
153	1	13	?	N	f	101.31	NA	3	24	8	56	c	n	718.52	1	1000	1000	0	0
153	1	14	?	P	d	285.49	NA	9	56	4	24	c	j	601.3	1	1000	1000	0	0
153	1	15	?	P	d	1502.95	NA	7	24	2	56	i	n	919.6	1	100	1000	0	0
153	1	16	?	N	f	468.84	NA	9	24	3	56	i	j	1001.51	1	1000	100	0	0
153	1	17	?	P	d	285.11	NA	8	24	4	56	i	n	768.74	1	1000	1000	0	0
153	1	18	?	P	d	1403.21	NA	9	56	2	24	c	j	1119.64	1	100	1000	0	0
153	1	19	?	P	d	1421.0	NA	7	24	3	56	i	n	986.3	1	100	100	0	0
153	1	20	?	N	f	251.8	NA	7	56	4	24	c	j	869.15	1	1000	1000	0	0
153	1	21	?	N	f	268.23	NA	3	56	9	24	i	n	819.55	1	1000	100	0	0
153	1	22	?	P	d	285.27	NA	7	56	2	24	c	j	836.26	1	1000	100	0	0
153	1	23	?	P	d	919.36	NA	3	56	9	24	i	n	935.57	0	100	100	0	0
153	1	24	?	N	f	1319.29	NA	2	56	7	24	i	n	1019.32	1	100	100	0	1
153	1	25	?	P	d	218.72	NA	4	24	8	56	c	n	786.15	1	1000	100	0	0
153	1	26	?	N	f	1203.07	NA	3	56	7	24	i	j	886.02	0	100	1000	0	0
153	1	27	?	N	f	1369.75	NA	4	24	7	56	c	n	969.34	1	100	100	0	1
153	1	28	?	N	f	1219.74	NA	3	56	7	24	i	n	1019.98	1	100	1000	0	0
153	1	29	?	P	d	1253.18	NA	4	24	8	56	c	n	1069.75	1	100	1000	0	0
153	1	30	?	N	f	1287.38	NA	9	56	3	24	c	j	885.78	1	100	100	0	0
153	1	31	?	P	d	785.89	NA	9	56	2	24	c	j	1219.61	1	100	100	0	0
153	1	32	?	N	f	719.21	NA	7	56	3	24	c	j	1153.13	1	100	1000	0	0
153	1	33	?	P	d	235.63	NA	8	56	2	24	c	j	869.29	1	1000	1000	0	0
153	1	34	?	P	d	335.42	NA	4	24	9	56	c	n	585.73	1	1000	100	0	0
153	1	35	?	P	d	986.21	NA	3	56	7	24	i	j	1053.13	1	100	1000	0	0
153	1	36	?	N	f	652.0	NA	8	24	4	56	i	j	535.62	1	100	1000	0	0
153	1	37	?	N	f	302.15	NA	3	56	9	24	i	n	852.64	1	1000	100	0	0
153	1	38	?	P	d	135.12	NA	4	56	8	24	i	j	869.58	1	1000	100	0	0
153	1	39	?	N	f	952.66	NA	7	24	3	56	i	j	585.5	1	100	1000	0	0
153	1	40	?	P	d	985.65	NA	9	56	2	24	c	j	719.32	1	100	1000	0	0
153	1	41	?	N	f	318.49	NA	4	24	7	56	c	n	936.33	1	1000	100	0	0
153	1	42	?	P	d	135.59	NA	2	24	9	56	c	n	817.8	1	1000	1000	0	0
153	1	43	?	N	f	134.93	NA	7	24	3	56	i	j	1036.31	1	1000	1000	0	0
153	1	44	?	N	f	268.7	NA	9	24	4	56	i	j	502.42	1	1000	1000	0	0
153	1	45	?	N	f	685.53	NA	8	56	3	24	c	j	635.96	1	100	1000	0	0
153	1	46	?	P	d	502.58	NA	8	56	4	24	c	j	434.35	1	1000	100	0	0
153	1	47	?	N	f	902.73	NA	2	24	8	56	c	n	669.3	1	100	1000	0	0
153	1	48	?	P	d	318.84	NA	4	24	8	56	c	n	852.54	1	100	100	0	0
153	1	49	?	P	d	452.88	NA	2	24	9	56	c	n	1135.95	1	1000	100	0	0
153	1	50	?	P	d	268.88	NA	7	56	4	24	c	j	435.26	1	1000	1000	0	0
153	1	51	?	N	f	1453.16	NA	2	56	7	24	i	n	885.97	1	100	100	0	0
153	1	52	?	P	d	702.15	NA	4	24	8	56	c	n	636.01	1	100	1000	0	0
153	1	53	?	N	f	652.18	NA	2	24	8	56	c	n	986.71	1	100	1000	0	0
153	1	54	?	N	f	769.25	NA	7	56	4	24	c	j	652.2	1	100	100	0	0
153	1	55	?	N	f	18.48	NA	3	56	8	24	i	n	803.13	1	1000	100	0	0
153	1	56	?	P	d	1086.43	NA	4	56	7	24	i	j	1085.06	1	100	100	0	0
153	1	57	?	P	d	218.18	NA	3	56	7	24	i	j	467.37	1	1000	1000	0	0
153	1	58	?	N	f	635.73	NA	4	24	9	56	c	n	719.21	1	100	100	0	0
153	1	59	?	P	d	736.03	NA	3	24	9	56	c	n	519.05	1	100	100	0	0
153	1	60	?	N	f	485.63	NA	7	24	2	56	i	j	936.28	1	1000	100	0	0
153	1	61	?	P	d	269.01	NA	3	56	9	24	i	j	869.37	1	1000	100	0	0
153	1	62	?	P	d	285.76	NA	9	24	4	56	i	n	418.09	1	1000	1000	0	0
153	1	63	?	P	d	168.49	NA	8	56	2	24	c	j	685.04	1	1000	100	0	0
153	1	64	?	P	d	268.25	NA	9	56	3	24	c	j	702.55	1	1000	100	0	0
153	1	65	?	N	f	318.06	NA	4	56	7	24	i	n	869.54	1	1000	1000	0	0
153	2	1	?	N	f	318.6	NA	2	56	8	24	i	n	534.67	1	1000	100	-1	0
153	2	2	?	N	f	302.4	NA	8	56	3	24	c	n	518.88	0	1000	100	0	0
153	2	3	?	P	d	985.72	NA	7	56	2	24	c	j	635.47	1	100	1000	0	1
153	2	4	?	P	d	1219.76	NA	4	24	7	56	c	n	552.6	1	100	1000	0	0
153	2	5	?	P	d	1303.4	NA	3	56	8	24	i	j	952.43	1	100	1000	0	0
153	2	6	?	N	f	302.13	NA	7	24	4	56	i	j	869.32	1	1000	100	0	0
153	2	7	?	P	d	402.72	NA	7	56	3	24	c	j	435.46	1	1000	1000	0	0
153	2	8	?	N	f	1286.81	NA	9	24	2	56	i	j	1036.49	1	100	1000	0	0
153	2	9	?	N	f	1520.71	NA	4	56	7	24	i	n	502.19	1	100	1000	0	0
153	2	10	?	N	f	285.27	NA	7	56	3	24	c	n	535.76	0	1000	100	0	0
153	2	11	?	P	d	34.64	NA	2	24	9	56	c	n	669.87	1	1000	1000	0	1
153	2	12	?	N	f	1286.6	NA	8	24	3	56	i	j	919.61	1	100	100	0	0
153	2	13	?	P	d	769.27	NA	9	24	2	56	i	n	1253.01	1	100	100	0	0
153	2	14	?	P	d	301.39	NA	7	24	3	56	i	j	669.55	0	1000	100	0	0
153	2	15	?	P	d	969.44	NA	8	56	4	24	c	j	502.29	1	100	1000	0	1
153	2	16	?	N	f	35.18	NA	7	56	3	24	c	j	585.11	1	1000	1000	0	0
153	2	17	?	P	d	51.14	NA	8	24	2	56	i	n	351.67	1	1000	1000	0	0
153	2	18	?	N	f	1754.09	NA	8	24	3	56	i	j	502.26	1	1000	1000	0	0
153	2	19	?	P	d	285.37	NA	2	24	8	56	c	n	652.53	1	1000	1000	0	0
153	2	20	?	N	f	952.89	NA	4	56	8	24	i	n	601.4	1	100	1000	0	0
153	2	21	?	N	f	752.11	NA	7	56	3	24	c	n	685.31	0	100	100	0	0
153	2	22	?	N	f	569.36	NA	2	24	7	56	c	n	802.82	1	100	1000	0	1
153	2	23	?	P	d	718.37	NA	4	24	8	56	c	n	735.76	1	1000	100	0	0
153	2	24	?	N	f	1053.15	NA	3	56	8	24	i	n	1470.32	1	100	1000	0	0
153	2	25	?	N	f	1069.62	NA	9	24	2	56	i	j	568.76	1	100	1000	0	0
153	2	26	?	P	d	218.8	NA	3	24	8	56	c	n	902.85	1	1000	1000	0	0
153	2	27	?	P	d	786.15	NA	9	24	4	56	i	n	1053.09	1	100	100	0	0
153	2	28	?	P	d	952.06	NA	2	24	8	56	c	n	719.82	1	100	100	0	0
153	2	29	?	N	f	1637.24	NA	4	56	8	24	i	n	735.65	1	100	100	0	0
153	2	30	?	P	d	168.33	NA	7	24	2	56	i	n	635.73	1	1000	1000	0	0
153	2	31	?	N	f	768.97	NA	7	24	3	56	i	j	1603.55	1	1000	1000	0	0
153	2	32	?	N	f	868.96	NA	2	24	8	56	c	n	1002.75	1	100	100	0	0
153	2	33	?	N	f	986.17	NA	7	24	4	56	i	j	902.8	1	100	100	0	0
153	2	34	?	P	d	285.62	NA	2	56	7	24	i	j	1319.76	1	1000	1000	0	0
153	2	35	?	N	f	2754.12	NA	7	56	3	24	c	j	785.95	1	1000	100	0	0
153	2	36	?	P	d	835.87	NA	4	24	8	56	c	n	402.79	1	100	1000	0	0
153	2	37	?	P	d	769.33	NA	2	24	9	56	c	n	551.88	1	100	100	0	0
153	2	38	?	P	d	268.75	NA	8	24	4	56	i	n	818.72	1	1000	1000	0	0
153	2	39	?	N	f	268.97	NA	9	24	3	56	i	j	719.13	1	1000	100	0	0
153	2	40	?	N	f	669.14	NA	4	24	7	56	c	n	752.85	1	100	100	0	0
153	2	41	?	P	d	735.88	NA	7	56	2	24	c	j	1486.66	1	100	100	0	0
153	2	42	?	N	f	569.09	NA	9	56	3	24	c	j	618.14	1	100	1000	0	0
153	2	43	?	P	d	468.93	NA	4	24	8	56	c	n	785.58	1	1000	100	0	0
153	2	44	?	N	f	886.03	NA	8	24	3	56	i	j	669.42	1	100	100	0	0
153	2	45	?	P	d	669.26	NA	8	56	2	24	c	j	986.21	1	100	100	0	0
153	2	46	?	P	d	519.03	NA	9	56	4	24	c	j	452.24	1	1000	1000	0	0
153	2	47	?	N	f	85.34	NA	7	56	2	24	c	j	552.85	1	1000	1000	0	0
153	2	48	?	N	f	1086.14	NA	7	56	4	24	c	j	701.25	1	100	100	0	0
153	2	49	?	P	d	285.08	NA	2	56	7	24	i	j	934.5	1	1000	100	0	0
153	2	50	?	N	f	902.76	NA	9	56	3	24	c	j	602.69	1	100	1000	0	0
153	2	51	?	P	d	1019.69	NA	7	24	2	56	i	n	735.74	1	100	100	0	0
153	2	52	?	P	d	268.14	NA	8	24	3	56	i	n	1103.31	1	1000	100	0	0
153	2	53	?	N	f	1019.45	NA	4	24	8	56	c	n	919.81	1	100	1000	0	0
153	2	54	?	N	f	268.93	NA	2	24	9	56	c	n	418.38	1	1000	1000	0	0
153	2	55	?	N	f	318.72	NA	7	24	4	56	i	j	602.69	1	1000	1000	0	0
153	2	56	?	P	d	235.2	NA	7	56	3	24	c	j	752.47	1	1000	100	0	0
153	2	57	?	N	f	986.22	NA	7	24	2	56	i	j	468.8	1	100	1000	0	0
153	2	58	?	P	d	251.74	NA	8	24	3	56	i	n	834.93	1	1000	100	0	0
153	2	59	?	P	d	201.64	NA	4	24	8	56	c	n	702.44	1	1000	100	0	0
153	2	60	?	P	d	235.65	NA	3	24	7	56	c	n	468.83	1	1000	100	0	0
153	2	61	?	N	f	919.64	NA	8	24	2	56	i	j	852.95	1	100	100	0	0
153	2	62	?	P	d	1686.05	NA	8	24	3	56	i	n	719.84	1	100	1000	0	0
153	2	63	?	N	f	269.11	NA	9	24	2	56	i	j	803.61	1	1000	100	0	0
153	2	64	?	N	f	252.07	NA	4	56	8	24	i	n	802.92	1	1000	100	0	0
153	2	65	?	N	f	35.14	NA	2	56	9	24	i	n	435.57	1	1000	1000	0	0
153	3	1	?	N	f	352.37	NA	9	24	2	56	i	j	619.16	1	1000	100	-1	0
153	3	2	?	N	f	268.73	NA	3	56	7	24	i	n	452.17	1	1000	1000	0	0
153	3	3	?	P	d	285.29	NA	4	56	9	24	i	n	902.72	0	1000	100	0	0
153	3	4	?	P	d	568.71	NA	2	56	9	24	i	j	519.05	1	1000	1000	0	1
153	3	5	?	P	d	285.68	NA	4	56	7	24	i	j	1119.82	1	1000	100	0	0
153	3	6	?	N	f	1870.54	NA	7	56	2	24	c	j	902.72	1	100	100	0	0
153	3	7	?	P	d	267.97	NA	3	56	9	24	i	n	719.39	0	1000	1000	0	0
153	3	8	?	N	f	852.96	NA	4	24	8	56	c	n	619.65	1	100	1000	0	1
153	3	9	?	N	f	1069.07	NA	3	56	9	24	i	n	652.48	1	100	100	0	0
153	3	10	?	N	f	702.51	NA	7	24	2	56	i	j	518.58	1	100	1000	0	0
153	3	11	?	P	d	235.29	NA	3	24	7	56	c	n	636.27	1	1000	100	0	0
153	3	12	?	N	f	851.98	NA	7	56	4	24	c	j	452.55	1	100	1000	0	0
153	3	13	?	P	d	669.04	NA	7	24	2	56	i	n	636.21	1	100	1000	0	0
153	3	14	?	P	d	219.12	NA	7	56	4	24	c	j	534.12	1	1000	1000	0	0
153	3	15	?	N	f	1035.89	NA	7	56	2	24	c	j	652.48	1	100	100	0	0
153	3	16	?	P	d	985.95	NA	3	56	7	24	i	j	768.25	1	100	100	0	0
153	3	17	?	N	f	518.73	NA	8	24	4	56	i	j	903.44	1	1000	1000	0	0
153	3	18	?	N	f	268.18	NA	8	56	3	24	c	n	635.63	0	1000	1000	0	0
153	3	19	?	P	d	936.06	NA	8	24	4	56	i	n	1469.3	1	100	100	0	1
153	3	20	?	N	f	168.68	NA	3	24	7	56	c	n	702.37	1	1000	1000	0	0
153	3	21	?	P	d	418.85	NA	2	56	8	24	i	j	1035.76	1	1000	100	0	0
153	3	22	?	P	d	1085.64	NA	3	56	8	24	i	j	602.36	1	100	1000	0	0
153	3	23	?	P	d	235.73	NA	4	24	8	56	c	n	835.82	1	1000	1000	0	0
153	3	24	?	N	f	2087.45	NA	7	56	2	24	c	j	584.73	1	100	100	0	0
153	3	25	?	N	f	235.22	NA	7	56	3	24	c	j	568.9	1	1000	1000	0	0
153	3	26	?	P	d	135.5	NA	4	24	7	56	c	n	385.65	1	1000	1000	0	0
153	3	27	?	N	f	1085.91	NA	2	24	7	56	c	n	419.03	1	100	1000	0	0
153	3	28	?	N	f	235.51	NA	8	56	4	24	c	j	651.75	1	1000	100	0	0
153	3	29	?	N	f	435.03	NA	9	56	2	24	c	j	451.5	1	1000	1000	0	0
153	3	30	?	P	d	268.05	NA	8	24	4	56	i	n	702.41	1	1000	100	0	0
153	3	31	?	N	f	1101.99	NA	2	56	8	24	i	n	669.08	1	100	1000	0	0
153	3	32	?	P	d	1269.52	NA	4	24	8	56	c	n	785.97	1	100	100	0	0
153	3	33	?	N	f	2053.99	NA	2	56	7	24	i	n	1035.98	1	100	100	0	0
153	3	34	?	N	f	1286.48	NA	8	56	4	24	c	j	752.88	1	100	100	0	0
153	3	35	?	P	d	152.29	NA	3	24	9	56	c	n	535.85	1	1000	100	0	0
153	3	36	?	N	f	435.44	NA	8	24	2	56	i	j	551.86	1	1000	1000	0	0
153	3	37	?	P	d	34.52	NA	7	56	3	24	c	j	652.2	1	1000	100	0	0
153	3	38	?	P	d	269.14	NA	7	24	4	56	i	n	719.09	1	1000	100	0	0
153	3	39	?	N	f	1069.89	NA	9	24	2	56	i	j	719.06	1	100	100	0	0
153	3	40	?	P	d	168.91	NA	7	24	3	56	i	n	602.23	1	1000	100	0	0
153	3	41	?	P	d	1269.84	NA	2	24	7	56	c	n	502.42	1	100	100	0	0
153	3	42	?	P	d	234.67	NA	4	24	8	56	c	n	535.09	1	1000	100	0	0
153	3	43	?	N	f	285.78	NA	3	24	9	56	c	n	769.36	1	1000	1000	0	0
153	3	44	?	P	d	101.73	NA	2	56	7	24	i	j	652.18	1	1000	100	0	0
153	3	45	?	N	f	85.42	NA	4	56	9	24	i	n	519.07	1	1000	1000	0	0
153	3	46	?	N	f	284.37	NA	2	56	9	24	i	n	686.26	1	1000	1000	0	0
153	3	47	?	P	d	133.63	NA	7	56	3	24	c	j	468.96	1	1000	100	0	0
153	3	48	?	N	f	1270.25	NA	8	56	2	24	c	j	402.22	1	100	1000	0	0
153	3	49	?	N	f	285.3	NA	4	56	8	24	i	n	752.46	1	1000	1000	0	0
153	3	50	?	P	d	1003.32	NA	3	56	8	24	i	j	752.29	1	100	100	0	0
153	3	51	?	P	d	1353.37	NA	2	24	7	56	c	n	551.63	1	100	100	0	0
153	3	52	?	N	f	168.96	NA	4	24	8	56	c	n	984.7	1	1000	100	0	0
153	3	53	?	P	d	1070.04	NA	3	24	7	56	c	n	584.83	1	100	1000	0	0
153	3	54	?	P	d	85.31	NA	7	24	2	56	i	n	735.67	1	1000	100	0	0
153	3	55	?	N	f	1102.85	NA	8	24	4	56	i	j	619.24	1	100	100	0	0
153	3	56	?	N	f	667.71	NA	8	56	3	24	c	j	485.66	1	1000	100	0	0
153	3	57	?	P	d	1053.26	NA	4	56	7	24	i	j	352.0	1	100	1000	0	0
153	3	58	?	N	f	736.11	NA	7	56	3	24	c	j	652.43	1	100	1000	0	0
153	3	59	?	P	d	735.88	NA	4	24	8	56	c	n	418.77	1	100	1000	0	0
153	3	60	?	P	d	1136.52	NA	9	24	3	56	i	n	635.74	1	100	1000	0	0
153	3	61	?	P	d	852.72	NA	9	24	2	56	i	n	585.8	1	100	100	0	0
153	3	62	?	N	f	969.61	NA	7	56	3	24	c	j	402.26	1	100	1000	0	0
153	3	63	?	N	f	686.03	NA	4	56	9	24	i	n	468.84	1	100	1000	0	0
153	3	64	?	P	d	869.68	NA	2	24	8	56	c	n	502.04	1	100	100	0	0
153	3	65	?	N	f	702.81	NA	7	24	4	56	i	j	702.38	1	100	1000	0	0
153	4	1	?	N	f	302.16	NA	7	56	4	24	c	j	618.39	1	1000	100	-1	0
153	4	2	?	N	f	618.13	NA	8	56	3	24	c	j	534.94	1	100	1000	0	0
153	4	3	?	P	d	586.12	NA	7	24	4	56	i	n	769.48	1	100	1000	0	0
153	4	4	?	P	d	18.12	NA	2	24	7	56	c	n	635.92	1	1000	100	0	0
153	4	5	?	P	d	252.41	NA	4	56	9	24	i	j	1369.97	1	1000	1000	0	0
153	4	6	?	N	f	335.22	NA	3	56	7	24	i	n	1102.74	1	1000	1000	0	0
153	4	7	?	P	d	251.39	NA	2	24	8	56	c	n	483.52	1	1000	1000	0	0
153	4	8	?	N	f	786.31	NA	3	24	9	56	c	n	652.45	1	100	1000	0	0
153	4	9	?	N	f	318.81	NA	4	56	9	24	i	n	852.0	1	1000	100	0	0
153	4	10	?	N	f	852.72	NA	8	24	3	56	i	j	451.47	1	100	1000	0	0
153	4	11	?	P	d	268.72	NA	9	24	4	56	i	n	886.26	1	1000	100	0	0
153	4	12	?	P	d	284.73	NA	9	56	2	24	c	j	535.75	1	1000	1000	0	0
153	4	13	?	N	f	118.45	NA	8	24	3	56	i	j	535.28	1	1000	100	0	0
153	4	14	?	P	d	769.3	NA	2	56	7	24	i	j	702.34	1	100	100	0	0
153	4	15	?	N	f	301.93	NA	8	24	3	56	i	n	969.64	0	1000	100	0	0
153	4	16	?	N	f	985.83	NA	8	56	4	24	c	j	819.47	1	100	1000	0	1
153	4	17	?	N	f	268.42	NA	8	24	3	56	i	j	651.65	1	1000	1000	0	0
153	4	18	?	N	f	502.64	NA	9	56	4	24	c	j	686.34	1	1000	100	0	0
153	4	19	?	P	d	1487.04	NA	7	24	3	56	i	n	619.04	1	100	100	0	0
153	4	20	?	P	d	1286.49	NA	9	24	4	56	i	n	919.73	1	100	1000	0	0
153	4	21	?	N	f	1336.75	NA	9	56	3	24	c	j	869.29	1	100	1000	0	0
153	4	22	?	P	d	302.01	NA	7	24	4	56	i	n	435.56	1	1000	100	0	0
153	4	23	?	N	f	1135.69	NA	2	24	7	56	c	n	1219.16	1	100	100	0	0
153	4	24	?	P	d	635.68	NA	3	56	8	24	i	j	668.02	1	100	1000	0	0
153	4	25	?	P	d	952.16	NA	9	24	2	56	i	n	619.88	1	100	1000	0	0
153	4	26	?	N	f	769.48	NA	8	24	3	56	i	j	785.65	1	100	100	0	0
153	4	27	?	P	d	1.7	NA	9	24	2	56	i	n	802.46	1	1000	1000	0	0
153	4	28	?	N	f	618.75	NA	4	24	8	56	c	n	652.43	1	100	1000	0	0
153	4	29	?	P	d	819.52	NA	9	56	2	24	c	j	652.44	1	100	100	0	0
153	4	30	?	P	d	18.65	NA	9	56	4	24	c	j	435.76	1	1000	1000	0	0
153	4	31	?	N	f	617.88	NA	3	24	9	56	c	n	986.56	1	100	100	0	0
153	4	32	?	P	d	151.81	NA	7	24	4	56	i	n	352.22	1	1000	1000	0	0
153	4	33	?	N	f	84.14	NA	2	24	8	56	c	n	785.57	1	1000	100	0	0
153	4	34	?	N	f	902.73	NA	4	24	8	56	c	n	619.04	1	100	100	0	0
153	4	35	?	P	d	217.77	NA	9	24	3	56	i	n	1186.42	1	1000	1000	0	0
153	4	36	?	N	f	251.69	NA	4	24	8	56	c	n	452.07	1	1000	100	0	0
153	4	37	?	P	d	267.66	NA	2	24	7	56	c	n	351.55	1	1000	1000	0	0
153	4	38	?	P	d	284.8	NA	3	56	8	24	i	j	968.69	1	1000	1000	0	0
153	4	39	?	N	f	251.08	NA	9	24	2	56	i	j	401.42	1	1000	1000	0	0
153	4	40	?	N	f	268.74	NA	9	56	4	24	c	j	735.94	1	1000	100	0	0
153	4	41	?	N	f	1436.65	NA	7	24	3	56	i	j	619.11	1	100	1000	0	0
153	4	42	?	P	d	218.94	NA	4	24	8	56	c	n	635.82	1	1000	100	0	0
153	4	43	?	N	f	284.87	NA	2	24	9	56	c	n	652.37	1	1000	1000	0	0
153	4	44	?	P	d	302.48	NA	7	56	4	24	c	j	718.9	1	1000	100	0	0
153	4	45	?	P	d	1336.61	NA	8	24	3	56	i	n	1002.15	1	100	100	0	0
153	4	46	?	N	f	1487.16	NA	4	24	9	56	c	n	634.6	1	100	1000	0	0
153	4	47	?	N	f	318.55	NA	9	56	2	24	c	j	386.03	1	1000	1000	0	0
153	4	48	?	P	d	986.38	NA	8	56	4	24	c	j	534.24	1	100	100	0	0
153	4	49	?	P	d	151.88	NA	2	24	9	56	c	n	352.21	1	1000	1000	0	0
153	4	50	?	N	f	252.43	NA	8	56	4	24	c	j	669.21	1	1000	100	0	0
153	4	51	?	P	d	1052.75	NA	8	24	3	56	i	n	553.02	1	100	100	0	0
153	4	52	?	N	f	936.4	NA	9	24	4	56	i	j	585.88	1	100	100	0	0
153	4	53	?	P	d	886.08	NA	9	24	2	56	i	n	553.01	1	100	100	0	0
153	4	54	?	P	d	919.31	NA	3	24	9	56	c	n	485.49	1	100	1000	0	0
153	4	55	?	N	f	769.5	NA	8	24	4	56	i	j	435.61	1	100	1000	0	0
153	4	56	?	N	f	652.45	NA	9	24	3	56	i	j	468.94	1	100	100	0	0
153	4	57	?	N	f	569.03	NA	8	56	2	24	c	j	669.22	1	100	1000	0	0
153	4	58	?	P	d	285.44	NA	8	56	4	24	c	j	485.44	1	1000	1000	0	0
153	4	59	?	N	f	434.9	NA	8	24	2	56	i	j	535.66	1	1000	100	0	0
153	4	60	?	P	d	252.19	NA	3	56	8	24	i	j	652.33	1	1000	100	0	0
153	4	61	?	N	f	602.97	NA	2	24	9	56	c	n	652.36	1	100	100	0	0
153	4	62	?	N	f	802.42	NA	8	56	3	24	c	j	601.83	1	100	100	0	0
153	4	63	?	P	d	819.58	NA	9	24	2	56	i	n	552.32	1	100	1000	0	0
153	4	64	?	P	d	652.64	NA	8	56	3	24	c	j	485.8	1	100	100	0	0
153	4	65	?	P	d	202.24	NA	9	24	2	56	i	n	569.01	1	1000	100	0	0
153	5	1	?	N	f	469.0	NA	2	56	9	24	i	n	718.97	1	100	1000	-1	0
153	5	2	?	N	f	268.49	NA	8	24	4	56	i	j	518.96	1	1000	100	0	0
153	5	3	?	P	d	1620.26	NA	2	56	8	24	i	j	551.14	1	100	100	0	0
153	5	4	?	N	f	135.36	NA	7	56	3	24	c	j	568.97	1	1000	1000	0	0
153	5	5	?	P	d	752.18	NA	2	24	9	56	c	n	602.44	1	100	100	0	0
153	5	6	?	P	d	201.52	NA	4	56	9	24	i	j	635.26	1	1000	1000	0	0
153	5	7	?	P	d	535.78	NA	3	24	7	56	c	n	368.38	1	100	1000	0	0
153	5	8	?	N	f	652.23	NA	2	56	7	24	i	n	635.57	1	100	100	0	0
153	5	9	?	N	f	302.13	NA	3	24	8	56	c	n	585.38	1	1000	1000	0	0
153	5	10	?	P	d	836.24	NA	2	56	7	24	i	j	602.0	1	100	100	0	0
153	5	11	?	N	f	702.59	NA	7	56	3	24	c	j	684.43	1	100	100	0	0
153	5	12	?	P	d	269.11	NA	2	24	8	56	c	n	636.35	1	1000	100	0	0
153	5	13	?	N	f	819.2	NA	8	24	4	56	i	j	602.76	1	100	1000	0	0
153	5	14	?	N	f	69.0	NA	3	24	7	56	c	n	869.35	1	1000	100	0	0
153	5	15	?	P	d	185.52	NA	9	56	4	24	c	j	886.64	1	1000	100	0	0
153	5	16	?	N	f	252.46	NA	2	56	7	24	i	n	786.06	1	1000	100	0	0
153	5	17	?	P	d	419.33	NA	3	56	9	24	i	j	352.27	1	1000	1000	0	0
153	5	18	?	P	d	285.21	NA	7	24	2	56	i	n	652.47	1	1000	100	0	0
153	5	19	?	P	d	252.12	NA	3	56	8	24	i	n	352.34	0	1000	1000	0	0
153	5	20	?	N	f	51.93	NA	4	56	9	24	i	n	836.29	1	1000	100	0	1
153	5	21	?	P	d	1035.98	NA	3	24	8	56	c	n	835.96	1	100	1000	0	0
153	5	22	?	N	f	519.37	NA	8	56	4	24	c	j	701.51	1	100	1000	0	0
153	5	23	?	N	f	635.82	NA	8	24	3	56	i	j	435.6	1	100	1000	0	0
153	5	24	?	P	d	268.98	NA	2	56	7	24	i	j	1319.72	1	1000	100	0	0
153	5	25	?	P	d	268.67	NA	4	24	8	56	c	n	602.19	1	1000	100	0	0
153	5	26	?	N	f	1052.95	NA	2	56	9	24	i	n	435.81	1	100	1000	0	0
153	5	27	?	N	f	185.63	NA	7	56	4	24	c	j	717.95	1	1000	1000	0	0
153	5	28	?	N	f	251.58	NA	2	56	9	24	i	n	452.06	1	1000	1000	0	0
153	5	29	?	P	d	134.89	NA	3	56	7	24	i	j	652.71	1	1000	100	0	0
153	5	30	?	N	f	251.9	NA	4	56	8	24	i	n	452.42	1	1000	100	0	0
153	5	31	?	P	d	118.25	NA	2	24	9	56	c	n	351.84	1	1000	1000	0	0
153	5	32	?	P	d	652.42	NA	9	56	4	24	c	j	569.14	1	100	100	0	0
153	5	33	?	N	f	1035.69	NA	7	24	2	56	i	j	602.8	1	100	1000	0	0
153	5	34	?	N	f	887.07	NA	9	24	3	56	i	j	502.23	1	100	100	0	0
153	5	35	?	P	d	552.43	NA	7	24	4	56	i	n	718.91	1	100	100	0	0
153	5	36	?	N	f	635.92	NA	2	56	8	24	i	n	501.83	1	100	1000	0	0
153	5	37	?	P	d	352.84	NA	9	56	4	24	c	j	519.55	1	1000	1000	0	0
153	5	38	?	P	d	952.49	NA	3	24	8	56	c	n	368.77	1	100	1000	0	0
153	5	39	?	P	d	218.75	NA	8	56	4	24	c	j	535.91	1	1000	100	0	0
153	5	40	?	N	f	652.43	NA	8	24	3	56	i	j	485.81	1	100	1000	0	0
153	5	41	?	N	f	85.17	NA	7	56	2	24	c	j	735.04	1	1000	100	0	0
153	5	42	?	P	d	1.72	NA	4	56	9	24	i	n	702.82	0	1000	100	0	0
153	5	43	?	P	d	1086.25	NA	9	24	3	56	i	n	652.9	1	100	1000	0	1
153	5	44	?	P	d	935.97	NA	4	24	7	56	c	n	835.93	1	100	100	0	0
153	5	45	?	N	f	235.04	NA	7	56	2	24	c	j	869.56	1	1000	100	0	0
153	5	46	?	P	d	118.43	NA	7	24	3	56	i	n	1119.82	1	1000	1000	0	0
153	5	47	?	N	f	519.37	NA	2	56	7	24	i	n	402.7	1	100	1000	0	0
153	5	48	?	N	f	636.19	NA	3	24	8	56	c	n	1019.57	1	100	100	0	0
153	5	49	?	N	f	902.62	NA	9	56	2	24	c	j	719.14	1	100	100	0	0
153	5	50	?	P	d	668.34	NA	3	24	8	56	c	n	1119.73	1	1000	1000	0	0
153	5	51	?	P	d	218.87	NA	2	56	8	24	i	j	602.56	1	1000	1000	0	0
153	5	52	?	N	f	185.45	NA	3	24	8	56	c	n	618.67	1	1000	1000	0	0
153	5	53	?	N	f	235.43	NA	4	24	8	56	c	n	569.09	1	1000	100	0	0
153	5	54	?	N	f	1035.75	NA	3	56	9	24	i	n	919.59	1	100	100	0	0
153	5	55	?	P	d	869.59	NA	2	56	9	24	i	j	769.33	1	100	100	0	0
153	5	56	?	N	f	735.36	NA	3	24	7	56	c	n	617.86	1	100	1000	0	0
153	5	57	?	P	d	736.22	NA	8	56	4	24	c	j	552.41	1	100	100	0	0
153	5	58	?	N	f	585.79	NA	8	56	3	24	c	j	1086.26	1	100	1000	0	0
153	5	59	?	P	d	434.87	NA	9	24	4	56	i	n	652.37	1	1000	1000	0	0
153	5	60	?	P	d	919.77	NA	7	56	3	24	c	j	435.66	1	100	1000	0	0
153	5	61	?	P	d	568.56	NA	4	24	7	56	c	n	803.07	1	100	100	0	0
153	5	62	?	N	f	502.08	NA	7	56	3	24	c	j	836.76	1	100	1000	0	0
153	5	63	?	P	d	701.13	NA	9	24	4	56	i	n	551.96	1	100	100	0	0
153	5	64	?	N	f	51.92	NA	9	56	2	24	c	j	451.18	1	1000	1000	0	0
153	5	65	?	N	f	185.69	NA	3	56	9	24	i	n	401.07	1	1000	1000	0	0
153	6	1	?	P	d	569.06	NA	4	24	8	56	c	n	519.11	1	1000	100	-1	0
153	6	2	?	N	f	568.94	NA	2	56	8	24	i	n	434.76	1	100	1000	0	0
153	6	3	?	P	d	235.63	NA	3	24	8	56	c	n	518.69	1	1000	100	0	0
153	6	4	?	P	d	702.17	NA	4	24	7	56	c	n	501.54	1	100	1000	0	0
153	6	5	?	N	f	385.68	NA	8	56	3	24	c	j	619.46	1	1000	1000	0	0
153	6	6	?	N	f	718.99	NA	7	56	4	24	c	j	819.39	1	100	100	0	0
153	6	7	?	N	f	218.35	NA	2	24	8	56	c	n	485.38	1	1000	1000	0	0
153	6	8	?	P	d	619.11	NA	8	56	4	24	c	j	618.79	1	100	1000	0	0
153	6	9	?	P	d	635.76	NA	9	24	3	56	i	n	836.18	1	100	1000	0	0
153	6	10	?	N	f	85.38	NA	2	56	8	24	i	n	569.38	1	1000	100	0	0
153	6	11	?	P	d	802.94	NA	7	56	4	24	c	j	368.79	1	100	1000	0	0
153	6	12	?	N	f	802.53	NA	9	56	2	24	c	j	736.24	1	100	100	0	0
153	6	13	?	P	d	635.82	NA	7	24	4	56	i	n	1286.56	1	100	100	0	0
153	6	14	?	P	d	752.44	NA	8	56	2	24	c	j	700.82	1	100	100	0	0
153	6	15	?	N	f	752.48	NA	4	56	7	24	i	n	1303.14	1	100	1000	0	0
153	6	16	?	P	d	519.13	NA	3	56	8	24	i	j	701.83	1	1000	1000	0	0
153	6	17	?	P	d	569.61	NA	2	24	7	56	c	n	802.56	1	1000	100	0	0
153	6	18	?	N	f	251.84	NA	9	24	4	56	i	j	1086.76	1	1000	1000	0	0
153	6	19	?	N	f	786.05	NA	7	24	3	56	i	j	603.15	1	100	100	0	0
153	6	20	?	N	f	252.14	NA	7	56	2	24	c	j	686.06	1	1000	1000	0	0
153	6	21	?	P	d	868.86	NA	3	56	9	24	i	j	651.53	1	100	1000	0	0
153	6	22	?	N	f	85.03	NA	4	56	9	24	i	n	702.55	1	1000	100	0	0
153	6	23	?	P	d	1053.13	NA	7	24	3	56	i	j	785.95	0	100	1000	0	0
153	6	24	?	P	d	635.34	NA	2	24	8	56	c	n	551.22	1	1000	1000	0	1
153	6	25	?	N	f	302.1	NA	9	56	4	24	c	j	685.61	1	1000	100	0	0
153	6	26	?	P	d	268.69	NA	7	24	3	56	i	n	668.84	1	1000	1000	0	0
153	6	27	?	P	d	35.33	NA	9	24	2	56	i	n	853.22	1	1000	100	0	0
153	6	28	?	N	f	853.03	NA	4	24	7	56	c	n	1035.45	1	100	100	0	0
153	6	29	?	N	f	152.48	NA	3	24	8	56	c	n	885.89	1	1000	100	0	0
153	6	30	?	P	d	953.36	NA	8	24	4	56	i	n	568.95	1	100	100	0	0
153	6	31	?	N	f	1068.82	NA	2	24	7	56	c	n	1119.23	1	100	100	0	0
153	6	32	?	P	d	835.66	NA	4	56	8	24	i	j	717.74	1	100	100	0	0
153	6	33	?	N	f	451.99	NA	7	24	2	56	i	j	1303.25	1	1000	1000	0	0
153	6	34	?	P	d	135.65	NA	7	24	4	56	i	n	619.2	1	1000	1000	0	0
153	6	35	?	P	d	267.75	NA	3	56	8	24	i	j	369.19	1	1000	1000	0	0
153	6	36	?	P	d	268.68	NA	9	56	2	24	c	j	535.5	1	1000	1000	0	0
153	6	37	?	N	f	318.83	NA	9	24	3	56	i	j	569.09	1	1000	100	0	0
153	6	38	?	N	f	1269.48	NA	9	24	2	56	i	j	985.61	1	100	100	0	0
153	6	39	?	P	d	402.47	NA	7	56	3	24	c	j	1020.05	1	1000	100	0	0
153	6	40	?	N	f	1252.86	NA	2	24	9	56	c	n	785.54	1	100	100	0	0
153	6	41	?	P	d	335.81	NA	7	24	4	56	i	n	352.04	1	1000	1000	0	0
153	6	42	?	N	f	385.5	NA	9	24	2	56	i	j	568.85	1	1000	100	0	0
153	6	43	?	N	f	869.1	NA	9	56	4	24	c	j	786.23	1	100	1000	0	0
153	6	44	?	N	f	151.87	NA	7	24	2	56	i	n	936.17	0	1000	100	0	0
153	6	45	?	P	d	352.13	NA	9	56	4	24	c	j	535.85	1	1000	1000	0	1
153	6	46	?	N	f	802.85	NA	3	56	7	24	i	n	569.11	1	100	100	0	0
153	6	47	?	P	d	669.17	NA	4	24	7	56	c	n	502.04	1	100	1000	0	0
153	6	48	?	N	f	218.43	NA	7	56	2	24	c	j	768.96	1	1000	100	0	0
153	6	49	?	P	d	235.15	NA	9	24	3	56	i	j	585.03	0	1000	1000	0	0
153	6	50	?	P	d	201.95	NA	4	24	8	56	c	n	835.9	1	1000	100	0	1
153	6	51	?	N	f	18.39	NA	2	56	8	24	i	n	502.51	1	1000	100	0	0
153	6	52	?	P	d	152.14	NA	4	24	9	56	c	n	685.81	1	1000	1000	0	0
153	6	53	?	N	f	919.22	NA	8	24	3	56	i	j	435.75	1	100	1000	0	0
153	6	54	?	N	f	919.56	NA	4	24	9	56	c	n	1186.35	1	100	1000	0	0
153	6	55	?	N	f	718.56	NA	3	24	8	56	c	n	685.77	1	100	100	0	0
153	6	56	?	P	d	703.23	NA	8	24	2	56	i	j	669.08	0	100	100	0	0
153	6	57	?	P	d	68.58	NA	4	56	8	24	i	n	552.16	0	1000	100	0	1
153	6	58	?	P	d	235.93	NA	8	56	3	24	c	j	1135.07	1	1000	100	0	1
153	6	59	?	P	d	886.26	NA	4	56	8	24	i	j	768.94	1	100	1000	0	0
153	6	60	?	N	f	852.43	NA	7	24	3	56	i	j	802.59	1	100	100	0	0
153	6	61	?	N	f	667.94	NA	8	56	4	24	c	n	519.22	0	100	1000	0	0
153	6	62	?	P	d	869.49	NA	9	56	3	24	c	j	1186.51	1	100	100	0	1
153	6	63	?	N	f	784.76	NA	8	24	4	56	i	j	1086.29	1	100	1000	0	0
153	6	64	?	P	d	735.74	NA	3	24	7	56	c	n	501.43	1	100	1000	0	0
153	6	65	?	N	f	469.02	NA	2	24	9	56	c	n	752.67	1	1000	1000	0	0
