subj	block	trial	task_cue	task	choice_resp	choiceRT	choice_acc	topnum	topsize	botnum	botsize	cong	task_resp	taskRT	task_acc	RSI	CSI	altRep	E1
157	1	1	?	P	d	1387.2	NA	7	56	3	24	c	j	803.44	1	100	100	-1	0
157	1	2	?	N	f	1253.56	NA	7	56	2	24	c	j	501.76	1	100	100	0	0
157	1	3	?	P	d	1720.7	NA	9	56	3	24	c	j	636.21	1	100	1000	0	0
157	1	4	?	N	f	636.41	NA	9	24	4	56	i	n	870.37	0	100	100	0	0
157	1	5	?	P	d	703.12	NA	2	56	8	24	i	j	670.19	1	100	100	0	1
157	1	6	?	N	f	469.52	NA	8	24	3	56	i	n	652.92	0	1000	100	0	0
157	1	7	?	N	f	2319.78	NA	9	56	2	24	c	j	453.05	1	100	1000	0	1
157	1	8	?	P	d	269.17	NA	9	56	4	24	c	j	403.21	1	1000	1000	0	0
157	1	9	?	N	f	169.44	NA	7	24	3	56	i	j	503.53	1	1000	1000	0	0
157	1	10	?	P	d	1053.44	NA	4	24	8	56	c	n	603.45	1	100	1000	0	0
157	1	11	?	N	f	586.49	NA	8	24	2	56	i	j	434.58	1	100	1000	0	0
157	1	12	?	P	d	435.87	NA	9	24	3	56	i	n	986.16	1	1000	100	0	0
157	1	13	?	N	f	252.53	NA	8	56	4	24	c	j	420.02	1	1000	1000	0	0
157	1	14	?	P	d	720.17	NA	7	24	3	56	i	n	586.17	1	100	100	0	0
157	1	15	?	N	f	587.29	NA	8	24	2	56	i	n	469.32	0	100	1000	0	0
157	1	16	?	P	d	436.06	NA	4	24	9	56	c	n	486.44	1	1000	1000	0	1
157	1	17	?	P	d	903.24	NA	2	24	9	56	c	n	936.68	1	100	100	0	0
157	1	18	?	P	d	636.47	NA	4	56	7	24	i	j	986.79	1	100	100	0	0
157	1	19	?	P	d	569.54	NA	7	24	3	56	i	n	536.12	1	100	1000	0	0
157	1	20	?	N	f	286.9	NA	2	24	7	56	c	n	1020.86	1	1000	100	0	0
157	1	21	?	N	f	619.23	NA	3	56	7	24	i	n	636.94	1	100	1000	0	0
157	1	22	?	N	f	319.16	NA	2	56	9	24	i	n	486.69	1	1000	1000	0	0
157	1	23	?	P	d	18.66	NA	4	56	8	24	i	j	586.87	1	1000	1000	0	0
157	1	24	?	P	d	269.4	NA	3	24	9	56	c	n	837.05	1	1000	100	0	0
157	1	25	?	N	f	185.68	NA	9	56	2	24	c	j	703.18	1	1000	100	0	0
157	1	26	?	P	d	751.08	NA	8	56	3	24	c	j	686.77	1	100	100	0	0
157	1	27	?	P	d	1086.91	NA	4	56	9	24	i	j	753.35	1	100	100	0	0
157	1	28	?	N	f	419.33	NA	8	24	3	56	i	n	553.05	0	1000	100	0	0
157	1	29	?	P	d	319.3	NA	2	24	8	56	c	n	786.34	1	1000	100	0	1
157	1	30	?	P	d	1021.36	NA	4	24	9	56	c	n	500.65	1	100	1000	0	0
157	1	31	?	N	f	152.55	NA	2	24	7	56	c	n	620.03	1	1000	1000	0	0
157	1	32	?	N	f	553.02	NA	4	24	8	56	c	n	536.46	1	100	100	0	0
157	1	33	?	N	f	653.33	NA	2	56	9	24	i	n	920.78	1	1000	100	0	0
157	1	34	?	N	f	453.01	NA	3	24	7	56	c	n	453.32	1	1000	1000	0	0
157	1	35	?	N	f	702.44	NA	2	56	7	24	i	n	770.32	1	100	1000	0	0
157	1	36	?	P	d	469.15	NA	7	24	3	56	i	n	803.33	1	1000	1000	0	0
157	1	37	?	P	d	235.89	NA	2	24	8	56	c	n	986.47	1	1000	100	0	0
157	1	38	?	P	d	820.84	NA	9	24	4	56	i	n	686.61	1	100	100	0	0
157	1	39	?	P	d	1387.26	NA	2	56	7	24	i	j	568.32	1	100	1000	0	0
157	1	40	?	P	d	336.01	NA	9	24	4	56	i	n	636.48	1	1000	100	0	0
157	1	41	?	P	d	836.65	NA	8	56	2	24	c	j	470.19	1	100	1000	0	0
157	1	42	?	P	d	586.28	NA	9	56	3	24	c	j	569.61	1	1000	100	0	0
157	1	43	?	N	f	317.31	NA	9	56	2	24	c	j	569.28	1	1000	1000	0	0
157	1	44	?	N	f	1287.03	NA	7	56	3	24	c	j	486.52	1	100	1000	0	0
157	1	45	?	N	f	268.68	NA	8	56	2	24	c	j	469.27	1	1000	1000	0	0
157	1	46	?	N	f	2.44	NA	9	24	4	56	i	n	469.86	0	1000	1000	0	0
157	1	47	?	N	f	251.84	NA	9	56	3	24	c	j	569.68	1	1000	100	0	1
157	1	48	?	N	f	119.01	NA	7	56	2	24	c	j	584.34	1	1000	100	0	0
157	1	49	?	N	f	786.52	NA	4	24	9	56	c	n	770.17	1	100	100	0	0
157	1	50	?	N	f	536.92	NA	2	24	7	56	c	n	503.6	1	100	1000	0	0
157	1	51	?	N	f	302.01	NA	3	56	8	24	i	n	719.65	1	1000	1000	0	0
157	1	52	?	P	d	268.88	NA	4	56	7	24	i	j	452.71	1	1000	1000	0	0
157	1	53	?	P	d	1019.85	NA	9	24	2	56	i	n	486.23	1	100	100	0	0
157	1	54	?	P	d	285.99	NA	3	56	9	24	i	j	669.96	1	1000	100	0	0
157	1	55	?	P	d	269.39	NA	7	24	2	56	i	n	386.42	1	1000	1000	0	0
157	1	56	?	P	d	853.99	NA	9	56	4	24	c	j	469.97	1	100	100	0	0
157	1	57	?	P	d	650.98	NA	3	24	9	56	c	n	385.39	1	100	100	0	0
157	1	58	?	P	d	586.09	NA	4	24	8	56	c	n	370.64	1	100	1000	0	0
157	1	59	?	P	d	386.88	NA	2	56	8	24	i	j	503.68	1	100	1000	0	0
157	1	60	?	P	d	218.93	NA	8	24	3	56	i	n	435.85	1	1000	100	0	0
157	1	61	?	P	d	1187.49	NA	7	56	4	24	c	j	419.63	1	100	100	0	0
157	1	62	?	P	d	485.81	NA	8	24	2	56	i	n	401.3	1	100	1000	0	0
157	1	63	?	N	f	269.33	NA	3	24	8	56	c	n	385.7	1	1000	1000	0	0
157	1	64	?	N	f	486.45	NA	4	56	8	24	i	n	569.54	1	100	100	0	0
157	1	65	?	N	f	219.5	NA	8	24	2	56	i	j	486.73	1	1000	100	0	0
157	2	1	?	N	f	986.8	NA	2	56	7	24	i	n	1301.58	1	1000	100	-1	0
157	2	2	?	N	f	419.47	NA	8	56	3	24	c	j	469.77	1	100	100	0	0
157	2	3	?	N	f	335.76	NA	9	56	2	24	c	j	668.24	1	100	1000	0	0
157	2	4	?	N	f	318.89	NA	3	24	9	56	c	n	436.41	1	1000	100	0	0
157	2	5	?	N	f	402.78	NA	2	24	7	56	c	n	403.27	1	100	100	0	0
157	2	6	?	N	f	235.75	NA	9	24	3	56	i	j	570.06	1	1000	100	0	0
157	2	7	?	N	f	450.86	NA	9	24	2	56	i	j	669.78	1	100	100	0	0
157	2	8	?	P	d	268.68	NA	7	24	3	56	i	n	570.17	1	1000	100	0	0
157	2	9	?	P	d	469.6	NA	7	56	4	24	c	j	653.25	1	100	100	0	0
157	2	10	?	P	d	69.39	NA	9	56	3	24	c	j	453.18	1	1000	1000	0	0
157	2	11	?	P	d	453.05	NA	8	56	4	24	c	j	420.17	1	100	1000	0	0
157	2	12	?	P	d	419.62	NA	9	56	2	24	c	j	402.45	1	100	1000	0	0
157	2	13	?	P	d	319.41	NA	4	24	9	56	c	n	419.22	1	1000	1000	0	0
157	2	14	?	P	d	236.29	NA	7	56	3	24	c	j	401.13	1	1000	1000	0	0
157	2	15	?	P	d	869.86	NA	4	24	8	56	c	n	386.45	1	100	1000	0	0
157	2	16	?	P	d	435.19	NA	9	24	2	56	i	j	503.6	0	100	100	0	0
157	2	17	?	P	d	218.53	NA	3	56	9	24	i	j	887.21	1	1000	100	0	1
157	2	18	?	P	d	1203.12	NA	7	24	2	56	i	n	617.79	1	100	1000	0	0
157	2	19	?	P	d	953.7	NA	3	56	8	24	i	j	569.24	1	100	100	0	0
157	2	20	?	N	f	368.91	NA	4	56	9	24	i	n	486.45	1	1000	1000	0	0
157	2	21	?	N	f	235.87	NA	8	56	3	24	c	j	636.22	1	1000	100	0	0
157	2	22	?	N	f	252.83	NA	4	24	8	56	c	n	436.18	1	1000	100	0	0
157	2	23	?	N	f	669.8	NA	2	24	7	56	c	n	503.06	1	100	100	0	0
157	2	24	?	N	f	436.35	NA	4	56	7	24	i	j	485.69	0	100	100	0	0
157	2	25	?	N	f	619.62	NA	8	56	3	24	c	j	586.63	1	100	1000	0	1
157	2	26	?	N	f	452.49	NA	9	24	4	56	i	j	686.65	1	100	1000	0	0
157	2	27	?	N	f	168.41	NA	2	56	8	24	i	n	720.41	1	1000	1000	0	0
157	2	28	?	N	f	467.96	NA	4	56	7	24	i	n	569.88	1	100	1000	0	0
157	2	29	?	P	d	268.96	NA	2	24	9	56	c	n	436.67	1	1000	1000	0	0
157	2	30	?	P	d	468.96	NA	9	56	4	24	c	j	469.88	1	100	100	0	0
157	2	31	?	P	d	385.47	NA	9	24	2	56	i	n	519.17	1	100	100	0	0
157	2	32	?	P	d	368.63	NA	4	24	7	56	c	n	637.52	1	100	1000	0	0
157	2	33	?	P	d	2.45	NA	8	56	3	24	c	j	520.35	1	1000	100	0	0
157	2	34	?	P	d	252.21	NA	7	56	2	24	c	j	436.72	1	1000	100	0	0
157	2	35	?	N	f	602.76	NA	3	24	8	56	c	n	403.04	1	100	1000	0	0
157	2	36	?	N	f	135.37	NA	2	24	8	56	c	n	417.37	1	1000	100	0	0
157	2	37	?	N	f	469.61	NA	3	24	7	56	c	n	520.02	1	100	100	0	0
157	2	38	?	N	f	185.63	NA	4	24	8	56	c	n	687.26	1	1000	1000	0	0
157	2	39	?	N	f	435.42	NA	9	24	3	56	i	j	570.07	1	100	100	0	0
157	2	40	?	N	f	385.81	NA	4	24	9	56	c	n	668.22	1	100	1000	0	0
157	2	41	?	N	f	569.74	NA	3	24	8	56	c	n	453.15	1	100	100	0	0
157	2	42	?	N	f	386.13	NA	4	56	8	24	i	n	653.44	1	100	100	0	0
157	2	43	?	N	f	268.67	NA	3	24	8	56	c	n	401.97	1	1000	100	0	0
157	2	44	?	N	f	202.54	NA	4	56	8	24	i	n	619.16	1	1000	100	0	0
157	2	45	?	N	f	553.0	NA	3	56	9	24	i	n	567.51	1	100	1000	0	0
157	2	46	?	N	f	269.19	NA	7	24	2	56	i	j	786.37	1	1000	100	0	0
157	2	47	?	N	f	369.54	NA	8	24	3	56	i	j	586.7	1	100	1000	0	0
157	2	48	?	N	f	352.77	NA	2	56	7	24	i	n	753.7	1	1000	100	0	0
157	2	49	?	P	d	1253.77	NA	7	56	4	24	c	j	569.64	1	100	100	0	0
157	2	50	?	P	d	486.41	NA	2	56	9	24	i	n	519.32	0	1000	1000	0	0
157	2	51	?	P	d	319.49	NA	9	56	3	24	c	j	487.27	1	1000	1000	0	1
157	2	52	?	P	d	419.53	NA	4	56	9	24	i	j	887.19	1	1000	100	0	0
157	2	53	?	P	d	269.23	NA	3	56	7	24	i	j	719.63	1	1000	1000	0	0
157	2	54	?	P	d	335.66	NA	8	24	4	56	i	n	1003.04	1	1000	1000	0	0
157	2	55	?	P	d	602.85	NA	2	56	7	24	i	n	570.12	0	100	1000	0	0
157	2	56	?	P	d	84.89	NA	9	56	4	24	c	j	737.61	1	1000	1000	0	1
157	2	57	?	P	d	669.88	NA	7	24	3	56	i	n	786.3	1	1000	100	0	0
157	2	58	?	N	f	803.05	NA	2	24	8	56	c	n	653.3	1	1000	1000	0	0
157	2	59	?	N	f	2.44	NA	7	24	3	56	i	n	635.81	0	1000	1000	0	0
157	2	60	?	N	f	102.3	NA	4	56	9	24	i	n	420.46	1	1000	1000	0	1
157	2	61	?	N	f	369.4	NA	8	24	3	56	i	j	536.21	1	100	1000	0	0
157	2	62	?	N	f	402.42	NA	2	56	8	24	i	n	484.07	1	100	1000	0	0
157	2	63	?	N	f	219.17	NA	7	24	4	56	i	j	570.18	1	1000	1000	0	0
157	2	64	?	N	f	603.24	NA	9	56	2	24	c	j	503.57	1	1000	100	0	0
157	2	65	?	N	f	669.57	NA	8	24	3	56	i	j	617.71	1	100	100	0	0
157	3	1	?	N	f	1036.89	NA	2	56	9	24	i	j	1703.81	0	100	100	-1	0
157	3	2	?	N	f	302.28	NA	7	56	3	24	c	j	520.01	1	1000	1000	0	1
157	3	3	?	N	f	302.72	NA	7	56	2	24	c	j	436.61	1	100	100	0	0
157	3	4	?	N	f	235.21	NA	7	56	4	24	c	j	436.16	1	1000	1000	0	0
157	3	5	?	N	f	68.27	NA	9	56	2	24	c	j	402.64	1	1000	100	0	0
157	3	6	?	N	f	353.89	NA	3	24	7	56	c	n	403.24	1	100	1000	0	0
157	3	7	?	N	f	503.06	NA	4	56	8	24	i	n	720.46	1	100	1000	0	0
157	3	8	?	N	f	269.14	NA	3	56	9	24	i	n	436.04	1	1000	1000	0	0
157	3	9	?	P	d	369.1	NA	9	24	4	56	i	n	419.33	1	100	1000	0	0
157	3	10	?	P	d	168.66	NA	2	56	7	24	i	j	386.68	1	1000	100	0	0
157	3	11	?	P	d	351.93	NA	8	24	3	56	i	n	536.58	1	100	100	0	0
157	3	12	?	P	d	250.57	NA	4	24	7	56	c	n	533.98	1	100	1000	0	0
157	3	13	?	P	d	85.68	NA	7	56	2	24	c	j	486.66	1	1000	100	0	0
157	3	14	?	P	d	402.66	NA	7	56	4	24	c	j	452.7	1	100	100	0	0
157	3	15	?	P	d	252.18	NA	2	56	7	24	i	n	536.68	0	100	100	0	0
157	3	16	?	P	d	452.52	NA	3	24	9	56	c	n	603.32	1	1000	1000	0	1
157	3	17	?	N	f	636.21	NA	2	56	8	24	i	n	852.75	1	100	1000	0	0
157	3	18	?	N	f	319.42	NA	8	56	4	24	c	j	503.42	1	100	1000	0	0
157	3	19	?	N	f	436.11	NA	3	24	7	56	c	n	453.31	1	100	1000	0	0
157	3	20	?	N	f	85.71	NA	8	24	2	56	i	j	720.47	1	1000	1000	0	0
157	3	21	?	P	d	219.27	NA	9	24	4	56	i	n	702.9	1	1000	1000	0	0
157	3	22	?	P	d	586.01	NA	7	56	3	24	c	j	770.32	1	100	100	0	0
157	3	23	?	P	d	286.22	NA	8	56	4	24	c	j	804.78	1	1000	1000	0	0
157	3	24	?	P	d	3323.0	NA	2	24	7	56	c	n	569.99	1	100	1000	0	0
157	3	25	?	P	d	252.94	NA	7	24	4	56	i	j	553.32	0	100	100	0	0
157	3	26	?	P	d	386.82	NA	9	24	2	56	i	n	702.76	1	100	1000	0	1
157	3	27	?	N	f	235.75	NA	4	24	9	56	c	n	636.88	1	1000	100	0	0
157	3	28	?	N	f	386.21	NA	8	24	3	56	i	j	585.94	1	100	100	0	0
157	3	29	?	N	f	119.07	NA	2	24	7	56	c	n	436.2	1	1000	1000	0	0
157	3	30	?	N	f	218.89	NA	3	24	8	56	c	n	453.86	1	100	100	0	0
157	3	31	?	N	f	302.72	NA	8	56	2	24	c	j	419.44	1	100	100	0	0
157	3	32	?	N	f	385.98	NA	4	24	7	56	c	n	586.7	1	1000	1000	0	0
157	3	33	?	P	d	252.58	NA	7	56	2	24	c	j	486.39	1	1000	100	0	0
157	3	34	?	P	d	402.36	NA	4	24	8	56	c	n	570.07	1	1000	1000	0	0
157	3	35	?	N	f	85.78	NA	2	56	7	24	i	j	686.94	0	1000	100	0	0
157	3	36	?	N	f	852.48	NA	9	24	4	56	i	j	669.82	1	100	100	0	1
157	3	37	?	P	d	284.69	NA	8	56	2	24	c	j	786.39	1	1000	100	0	0
157	3	38	?	N	f	252.56	NA	3	56	9	24	i	j	719.25	0	1000	100	0	0
157	3	39	?	P	d	285.8	NA	8	24	4	56	i	n	769.99	1	1000	100	0	1
157	3	40	?	N	f	368.78	NA	8	24	3	56	i	j	586.63	1	1000	1000	0	0
157	3	41	?	P	d	102.15	NA	2	56	8	24	i	j	720.41	1	1000	1000	0	0
157	3	42	?	P	d	636.59	NA	8	56	3	24	c	j	703.29	1	100	1000	0	0
157	3	43	?	P	d	319.37	NA	2	24	9	56	c	n	486.73	1	100	100	0	0
157	3	44	?	N	f	619.14	NA	4	56	8	24	i	n	802.84	1	100	100	0	0
157	3	45	?	N	f	402.7	NA	9	24	2	56	i	j	970.63	1	1000	100	0	0
157	3	46	?	N	f	319.44	NA	8	24	3	56	i	j	569.56	1	1000	1000	0	0
157	3	47	?	N	f	418.02	NA	7	24	2	56	i	j	503.36	1	100	1000	0	0
157	3	48	?	P	d	202.76	NA	3	56	8	24	i	j	369.98	1	100	1000	0	0
157	3	49	?	P	d	102.29	NA	4	24	7	56	c	n	1470.91	1	1000	100	0	0
157	3	50	?	N	f	319.6	NA	3	24	8	56	c	n	536.49	1	1000	100	0	0
157	3	51	?	P	d	519.7	NA	2	24	8	56	c	n	819.73	1	1000	100	0	0
157	3	52	?	N	f	252.6	NA	3	56	9	24	i	n	435.92	1	1000	1000	0	0
157	3	53	?	P	d	802.96	NA	9	56	4	24	c	j	686.52	1	100	1000	0	0
157	3	54	?	N	f	786.63	NA	7	24	3	56	i	n	619.54	0	100	100	0	0
157	3	55	?	P	d	568.98	NA	8	24	4	56	i	n	720.33	1	1000	1000	0	1
157	3	56	?	P	d	85.64	NA	8	56	2	24	c	j	636.01	1	1000	1000	0	0
157	3	57	?	P	d	469.55	NA	4	56	7	24	i	j	602.82	1	100	1000	0	0
157	3	58	?	P	d	619.39	NA	3	56	8	24	i	j	1053.6	1	100	1000	0	0
157	3	59	?	N	f	269.18	NA	7	24	2	56	i	j	820.02	1	1000	100	0	0
157	3	60	?	N	f	285.22	NA	7	24	3	56	i	j	653.05	1	1000	100	0	0
157	3	61	?	N	f	269.38	NA	2	56	8	24	i	n	519.2	1	1000	100	0	0
157	3	62	?	N	f	903.14	NA	7	56	4	24	c	j	570.25	1	100	1000	0	0
157	3	63	?	P	d	519.4	NA	2	24	9	56	c	n	934.79	1	100	100	0	0
157	3	64	?	P	d	1487.06	NA	3	24	9	56	c	n	1687.65	1	100	100	0	0
157	3	65	?	P	d	987.51	NA	9	24	4	56	i	n	719.54	1	100	100	0	0
157	4	1	?	P	d	569.59	NA	2	24	8	56	c	n	403.22	1	100	1000	-1	0
157	4	2	?	P	d	185.49	NA	3	24	8	56	c	n	403.19	1	100	1000	0	0
157	4	3	?	N	f	252.46	NA	7	24	4	56	i	j	486.66	1	1000	1000	0	0
157	4	4	?	N	f	167.5	NA	2	24	8	56	c	n	419.85	1	1000	100	0	0
157	4	5	?	N	f	235.74	NA	8	24	3	56	i	j	519.11	1	100	100	0	0
157	4	6	?	P	d	285.99	NA	7	24	4	56	i	n	335.51	1	1000	1000	0	0
157	4	7	?	P	d	302.07	NA	7	24	3	56	i	n	535.88	1	100	100	0	0
157	4	8	?	P	d	336.15	NA	4	56	7	24	i	j	453.5	1	100	1000	0	0
157	4	9	?	N	f	285.93	NA	3	56	9	24	i	n	636.43	1	100	100	0	0
157	4	10	?	P	d	350.9	NA	4	56	7	24	i	j	553.1	1	1000	100	0	0
157	4	11	?	N	f	352.42	NA	3	24	8	56	c	n	353.17	1	1000	100	0	0
157	4	12	?	N	f	135.75	NA	7	56	2	24	c	j	403.28	1	100	1000	0	0
157	4	13	?	N	f	135.79	NA	9	24	3	56	i	n	536.52	0	100	1000	0	0
157	4	14	?	N	f	1103.52	NA	9	56	4	24	c	j	203.19	1	100	100	0	1
157	4	15	?	N	f	369.34	NA	9	56	3	24	c	j	369.6	1	1000	1000	0	0
157	4	16	?	N	f	119.17	NA	7	56	4	24	c	j	386.58	1	100	1000	0	0
157	4	17	?	P	d	135.85	NA	8	24	2	56	i	n	587.1	1	1000	100	0	0
157	4	18	?	P	d	51.55	NA	8	24	4	56	i	n	302.14	1	1000	1000	0	0
157	4	19	?	P	d	217.09	NA	3	56	7	24	i	j	552.72	1	1000	1000	0	0
157	4	20	?	P	d	202.86	NA	2	24	7	56	c	n	469.76	1	100	1000	0	0
157	4	21	?	N	f	238.2	NA	8	56	4	24	c	j	420.28	1	1000	100	0	0
157	4	22	?	P	d	319.39	NA	8	24	2	56	i	n	719.79	1	1000	100	0	0
157	4	23	?	N	f	319.35	NA	3	56	8	24	i	j	336.01	0	1000	100	0	0
157	4	24	?	N	f	452.78	NA	4	24	7	56	c	n	436.38	1	1000	100	0	1
157	4	25	?	P	d	252.62	NA	3	24	7	56	c	n	669.98	1	1000	1000	0	0
157	4	26	?	P	d	268.92	NA	7	56	2	24	c	j	586.69	1	1000	1000	0	0
157	4	27	?	P	d	335.94	NA	3	56	9	24	i	j	620.02	1	1000	100	0	0
157	4	28	?	P	d	519.48	NA	2	24	7	56	c	n	469.27	1	100	100	0	0
157	4	29	?	N	f	552.81	NA	3	56	7	24	i	n	386.24	1	1000	1000	0	0
157	4	30	?	N	f	753.15	NA	9	56	4	24	c	j	419.35	1	100	100	0	0
157	4	31	?	P	d	1253.61	NA	9	24	2	56	i	n	617.76	1	100	100	0	0
157	4	32	?	P	d	686.55	NA	7	56	3	24	c	j	469.67	1	100	100	0	0
157	4	33	?	P	d	335.92	NA	7	24	4	56	i	n	619.7	1	100	1000	0	0
157	4	34	?	N	f	384.14	NA	9	24	3	56	i	j	686.31	1	1000	100	0	0
157	4	35	?	N	f	436.11	NA	2	56	7	24	i	j	402.6	0	1000	100	0	0
157	4	36	?	N	f	385.35	NA	9	24	4	56	i	j	1120.42	1	100	100	0	1
157	4	37	?	N	f	285.36	NA	7	24	3	56	i	j	603.38	1	1000	100	0	0
157	4	38	?	P	d	452.61	NA	2	56	9	24	i	j	536.09	1	100	1000	0	0
157	4	39	?	N	f	335.83	NA	3	56	8	24	i	n	803.58	1	100	1000	0	0
157	4	40	?	P	d	185.93	NA	8	56	2	24	c	j	570.12	1	1000	100	0	0
157	4	41	?	N	f	619.54	NA	4	24	7	56	c	n	502.5	1	100	100	0	0
157	4	42	?	P	d	400.95	NA	2	24	9	56	c	n	953.37	1	100	100	0	0
157	4	43	?	N	f	619.26	NA	4	24	7	56	c	n	737.11	1	1000	100	0	0
157	4	44	?	N	f	269.08	NA	8	56	3	24	c	j	469.54	1	100	1000	0	0
157	4	45	?	N	f	118.84	NA	2	56	7	24	i	n	586.73	1	100	1000	0	0
157	4	46	?	P	d	302.44	NA	7	56	4	24	c	j	719.24	1	1000	100	0	0
157	4	47	?	P	d	286.14	NA	3	56	7	24	i	n	520.21	0	1000	1000	0	0
157	4	48	?	P	d	52.37	NA	2	56	7	24	i	j	1420.89	1	100	1000	0	1
157	4	49	?	N	f	286.0	NA	8	24	3	56	i	j	1034.45	1	1000	1000	0	0
157	4	50	?	P	d	335.39	NA	2	24	7	56	c	n	669.59	1	1000	1000	0	0
157	4	51	?	N	f	285.74	NA	9	56	4	24	c	j	470.3	1	1000	1000	0	0
157	4	52	?	N	f	102.56	NA	9	56	3	24	c	j	936.54	1	1000	1000	0	0
157	4	53	?	P	d	235.66	NA	9	56	4	24	c	j	669.75	1	1000	100	0	0
157	4	54	?	P	d	469.07	NA	2	24	8	56	c	n	670.13	1	100	100	0	0
157	4	55	?	P	d	803.27	NA	4	24	8	56	c	n	553.03	1	100	1000	0	0
157	4	56	?	P	d	219.49	NA	2	24	7	56	c	n	453.18	1	100	1000	0	0
157	4	57	?	N	f	51.96	NA	7	56	3	24	c	j	536.73	1	100	100	0	0
157	4	58	?	P	d	553.3	NA	2	56	7	24	i	j	753.43	1	100	100	0	0
157	4	59	?	N	f	602.97	NA	3	56	7	24	i	n	1370.7	1	100	1000	0	0
157	4	60	?	N	f	469.16	NA	2	24	9	56	c	n	470.05	1	1000	1000	0	0
157	4	61	?	N	f	135.91	NA	3	56	8	24	i	n	652.77	1	100	100	0	0
157	4	62	?	P	d	269.2	NA	4	24	8	56	c	n	451.52	1	1000	1000	0	0
157	4	63	?	N	f	252.05	NA	7	24	3	56	i	j	886.49	1	100	100	0	0
157	4	64	?	N	f	352.63	NA	9	56	2	24	c	j	536.25	1	100	1000	0	0
157	4	65	?	P	d	252.6	NA	8	24	3	56	i	n	1136.79	1	1000	1000	0	0
157	5	1	?	P	d	1937.27	NA	7	24	3	56	i	n	503.43	1	1000	100	-1	0
157	5	2	?	P	d	502.51	NA	7	24	4	56	i	n	403.06	1	100	1000	0	0
157	5	3	?	P	d	202.14	NA	3	56	9	24	i	n	419.87	0	100	1000	0	0
157	5	4	?	N	f	52.43	NA	7	56	2	24	c	j	402.66	1	1000	1000	0	1
157	5	5	?	N	f	152.46	NA	3	56	7	24	i	n	586.22	1	1000	100	0	0
157	5	6	?	P	d	200.6	NA	4	56	9	24	i	j	519.55	1	1000	1000	0	0
157	5	7	?	P	d	85.65	NA	7	56	3	24	c	j	686.75	1	1000	100	0	0
157	5	8	?	P	d	852.94	NA	4	56	8	24	i	j	602.88	1	100	100	0	0
157	5	9	?	N	f	686.58	NA	8	56	3	24	c	n	669.84	0	100	100	0	0
157	5	10	?	P	d	402.67	NA	8	24	4	56	i	n	519.47	1	100	1000	0	1
157	5	11	?	N	f	319.15	NA	9	56	3	24	c	j	503.33	1	1000	100	0	0
157	5	12	?	N	f	283.84	NA	4	24	8	56	c	n	636.44	1	1000	100	0	0
157	5	13	?	N	f	1420.36	NA	2	24	9	56	c	n	503.2	1	100	100	0	0
157	5	14	?	N	f	269.08	NA	3	56	9	24	i	n	586.34	1	100	100	0	0
157	5	15	?	N	f	736.52	NA	8	24	2	56	i	j	519.99	1	100	100	0	0
157	5	16	?	P	d	252.78	NA	7	24	4	56	i	n	686.77	1	1000	1000	0	0
157	5	17	?	P	d	268.89	NA	2	24	9	56	c	n	803.71	1	1000	100	0	0
157	5	18	?	P	d	586.6	NA	4	24	8	56	c	n	719.94	1	100	100	0	0
157	5	19	?	N	f	469.32	NA	8	56	2	24	c	j	603.33	1	100	1000	0	0
157	5	20	?	N	f	352.37	NA	9	56	3	24	c	j	417.75	1	1000	1000	0	0
157	5	21	?	P	d	218.97	NA	2	24	8	56	c	n	487.32	1	1000	1000	0	0
157	5	22	?	P	d	317.71	NA	3	24	9	56	c	n	552.81	1	1000	1000	0	0
157	5	23	?	P	d	619.56	NA	7	56	2	24	c	j	620.17	1	100	1000	0	0
157	5	24	?	N	f	303.0	NA	7	24	4	56	i	j	536.32	1	1000	1000	0	0
157	5	25	?	N	f	269.34	NA	3	24	8	56	c	n	403.39	1	100	1000	0	0
157	5	26	?	P	d	384.35	NA	4	56	9	24	i	n	920.53	0	100	1000	0	0
157	5	27	?	P	d	119.15	NA	9	24	2	56	i	n	1020.16	1	1000	1000	0	1
157	5	28	?	N	f	452.85	NA	3	56	7	24	i	j	603.55	0	100	100	0	0
157	5	29	?	N	f	419.22	NA	8	24	4	56	i	j	485.88	1	1000	1000	0	1
157	5	30	?	N	f	52.8	NA	3	24	9	56	c	n	586.67	1	1000	1000	0	0
157	5	31	?	N	f	418.72	NA	8	24	2	56	i	j	719.46	1	100	100	0	0
157	5	32	?	N	f	484.37	NA	7	24	4	56	i	j	503.27	1	100	1000	0	0
157	5	33	?	N	f	286.2	NA	7	56	3	24	c	j	502.98	1	100	1000	0	0
157	5	34	?	P	d	318.9	NA	2	56	7	24	i	j	603.03	1	1000	100	0	0
157	5	35	?	P	d	752.78	NA	3	56	7	24	i	j	536.26	1	100	100	0	0
157	5	36	?	P	d	302.49	NA	8	56	4	24	c	n	620.14	0	100	100	0	0
157	5	37	?	P	d	269.25	NA	7	56	2	24	c	j	617.37	1	100	100	0	1
157	5	38	?	P	d	68.92	NA	7	56	3	24	c	j	436.12	1	1000	1000	0	0
157	5	39	?	P	d	467.35	NA	8	56	4	24	c	j	452.89	1	100	1000	0	0
157	5	40	?	P	d	469.68	NA	2	24	9	56	c	n	720.36	1	100	100	0	0
157	5	41	?	P	d	452.25	NA	8	24	3	56	i	n	1204.22	1	1000	100	0	0
157	5	42	?	N	f	169.11	NA	2	24	9	56	c	n	987.3	1	100	100	0	0
157	5	43	?	N	f	169.52	NA	4	24	9	56	c	n	552.37	1	100	1000	0	0
157	5	44	?	N	f	319.05	NA	2	24	8	56	c	n	486.49	1	1000	100	0	0
157	5	45	?	N	f	402.83	NA	3	56	8	24	i	j	536.37	0	1000	100	0	0
157	5	46	?	P	d	302.76	NA	2	56	7	24	i	n	685.5	0	1000	100	0	1
157	5	47	?	P	d	1971.3	NA	4	24	9	56	c	n	786.48	1	100	1000	0	1
157	5	48	?	N	f	269.16	NA	2	56	8	24	i	n	369.95	1	1000	1000	0	0
157	5	49	?	N	f	302.54	NA	3	56	9	24	i	n	552.39	1	1000	100	0	0
157	5	50	?	P	d	102.28	NA	2	24	8	56	c	n	686.77	1	1000	1000	0	0
157	5	51	?	P	d	302.3	NA	8	24	4	56	i	n	953.78	1	100	100	0	0
157	5	52	?	N	f	336.0	NA	7	56	2	24	c	j	820.09	1	100	100	0	0
157	5	53	?	N	f	652.77	NA	3	56	7	24	i	n	637.36	1	100	1000	0	0
157	5	54	?	P	d	417.24	NA	2	24	9	56	c	n	753.24	1	1000	100	0	0
157	5	55	?	P	d	536.33	NA	3	24	8	56	c	n	553.0	1	100	1000	0	0
157	5	56	?	N	f	235.84	NA	8	56	4	24	c	j	702.95	1	1000	100	0	0
157	5	57	?	P	d	686.04	NA	9	24	2	56	i	n	736.88	1	100	1000	0	0
157	5	58	?	N	f	452.74	NA	7	24	3	56	i	j	619.92	1	1000	100	0	0
157	5	59	?	N	f	267.59	NA	8	56	2	24	c	j	669.67	1	1000	100	0	0
157	5	60	?	P	d	219.07	NA	8	24	3	56	i	n	452.91	1	1000	1000	0	0
157	5	61	?	P	d	286.02	NA	4	56	8	24	i	j	553.38	1	1000	100	0	0
157	5	62	?	P	d	269.13	NA	8	56	3	24	c	j	436.62	1	1000	1000	0	0
157	5	63	?	N	f	486.32	NA	4	56	9	24	i	n	1053.25	1	100	100	0	0
157	5	64	?	N	f	569.38	NA	7	24	2	56	i	j	586.6	1	100	1000	0	0
157	5	65	?	P	d	169.35	NA	4	56	9	24	i	j	1218.45	1	1000	1000	0	0
157	6	1	?	P	d	602.51	NA	4	24	9	56	c	n	469.08	1	100	100	-1	0
157	6	2	?	P	d	1955.05	NA	7	24	2	56	i	n	719.64	1	100	100	0	0
157	6	3	?	P	d	419.47	NA	3	56	9	24	i	j	703.5	1	1000	100	0	0
157	6	4	?	P	d	586.27	NA	7	56	4	24	c	j	736.83	1	100	1000	0	0
157	6	5	?	P	d	369.44	NA	3	56	7	24	i	j	736.43	1	1000	100	0	0
157	6	6	?	P	d	652.86	NA	9	24	2	56	i	n	603.07	1	1000	1000	0	0
157	6	7	?	P	d	753.07	NA	8	56	3	24	c	j	703.51	1	1000	100	0	0
157	6	8	?	N	f	803.02	NA	4	24	8	56	c	n	636.81	1	100	100	0	0
157	6	9	?	N	f	519.43	NA	8	24	2	56	i	j	469.22	1	100	100	0	0
157	6	10	?	N	f	302.51	NA	4	56	7	24	i	n	603.16	1	1000	100	0	0
157	6	11	?	P	d	269.47	NA	2	24	9	56	c	n	953.33	1	1000	100	0	0
157	6	12	?	P	d	436.06	NA	8	24	3	56	i	n	850.88	1	100	100	0	0
157	6	13	?	N	f	553.04	NA	7	56	2	24	c	j	451.12	1	100	1000	0	0
157	6	14	?	N	f	102.61	NA	3	24	8	56	c	n	486.4	1	1000	1000	0	0
157	6	15	?	N	f	269.13	NA	9	56	2	24	c	j	434.55	1	100	1000	0	0
157	6	16	?	P	d	102.31	NA	7	56	3	24	c	j	619.28	1	1000	100	0	0
157	6	17	?	N	f	819.86	NA	2	24	8	56	c	n	503.16	1	100	1000	0	0
157	6	18	?	P	d	386.13	NA	8	56	3	24	c	j	553.3	1	1000	1000	0	0
157	6	19	?	P	d	669.29	NA	7	24	2	56	i	n	920.07	1	100	1000	0	0
157	6	20	?	P	d	586.02	NA	7	24	4	56	i	n	703.27	1	100	1000	0	0
157	6	21	?	N	f	117.14	NA	2	24	9	56	c	n	402.98	1	1000	1000	0	0
157	6	22	?	N	f	753.52	NA	7	24	4	56	i	j	537.4	1	100	100	0	0
157	6	23	?	N	f	602.76	NA	3	56	7	24	i	n	502.44	1	100	1000	0	0
157	6	24	?	P	d	252.29	NA	8	56	2	24	c	j	719.6	1	1000	100	0	0
157	6	25	?	P	d	269.28	NA	4	24	9	56	c	n	602.9	1	1000	100	0	0
157	6	26	?	N	f	586.33	NA	2	24	7	56	c	n	436.03	1	1000	1000	0	0
157	6	27	?	N	f	469.58	NA	8	24	3	56	i	j	769.62	1	1000	1000	0	0
157	6	28	?	N	f	736.39	NA	7	56	2	24	c	j	469.51	1	100	100	0	0
157	6	29	?	P	d	285.57	NA	3	56	8	24	i	n	520.12	0	1000	1000	0	0
157	6	30	?	N	f	152.42	NA	4	56	9	24	i	n	987.08	1	1000	1000	0	1
157	6	31	?	P	d	235.93	NA	8	24	2	56	i	n	601.23	1	1000	1000	0	0
157	6	32	?	P	d	336.0	NA	8	56	4	24	c	j	736.45	1	1000	100	0	0
157	6	33	?	N	f	637.06	NA	3	24	9	56	c	n	453.13	1	100	1000	0	0
157	6	34	?	P	d	400.71	NA	2	24	9	56	c	n	519.52	1	1000	100	0	0
157	6	35	?	N	f	469.53	NA	7	56	4	24	c	j	486.61	1	1000	1000	0	0
157	6	36	?	P	d	402.49	NA	8	56	2	24	c	j	452.85	1	1000	1000	0	0
157	6	37	?	P	d	802.18	NA	8	56	4	24	c	j	652.64	1	100	100	0	0
157	6	38	?	N	f	1670.81	NA	7	56	3	24	c	j	669.82	1	100	100	0	0
157	6	39	?	N	f	1219.96	NA	9	24	2	56	i	j	1870.81	1	100	1000	0	0
157	6	40	?	N	f	817.92	NA	7	24	3	56	i	j	703.07	1	100	1000	0	0
157	6	41	?	N	f	269.28	NA	4	24	7	56	c	n	836.75	1	100	100	0	0
157	6	42	?	N	f	719.49	NA	7	24	2	56	i	n	1020.17	0	100	100	0	0
157	6	43	?	N	f	1253.18	NA	8	56	4	24	c	j	953.76	1	100	100	0	1
157	6	44	?	P	d	252.25	NA	7	56	2	24	c	j	717.47	1	1000	1000	0	0
157	6	45	?	P	d	185.29	NA	3	56	7	24	i	n	1003.46	0	1000	1000	0	0
157	6	46	?	P	d	669.7	NA	2	24	7	56	c	n	603.46	1	100	1000	0	1
157	6	47	?	P	d	719.68	NA	8	24	4	56	i	n	453.48	1	100	1000	0	0
157	6	48	?	N	f	202.49	NA	9	24	3	56	i	n	719.61	0	1000	100	0	0
157	6	49	?	N	f	819.6	NA	8	24	4	56	i	j	536.42	1	100	100	0	1
157	6	50	?	N	f	369.02	NA	2	56	7	24	i	n	553.61	1	100	100	0	0
157	6	51	?	N	f	319.07	NA	7	24	3	56	i	j	536.65	1	100	1000	0	0
157	6	52	?	N	f	319.16	NA	4	56	8	24	i	n	584.95	1	100	100	0	0
157	6	53	?	P	d	352.75	NA	3	56	8	24	i	j	536.18	1	100	1000	0	0
157	6	54	?	P	d	302.54	NA	7	24	4	56	i	n	787.33	1	1000	1000	0	0
157	6	55	?	P	d	469.91	NA	3	24	9	56	c	n	653.07	1	100	100	0	0
157	6	56	?	P	d	436.28	NA	2	24	9	56	c	n	503.07	1	100	1000	0	0
157	6	57	?	N	f	435.63	NA	3	56	8	24	i	n	1237.13	1	1000	100	0	0
157	6	58	?	N	f	285.57	NA	7	24	2	56	i	j	937.44	1	1000	1000	0	0
157	6	59	?	P	d	636.43	NA	4	56	9	24	i	j	603.59	1	1000	100	0	0
157	6	60	?	N	f	502.62	NA	2	24	8	56	c	n	636.91	1	1000	1000	0	0
157	6	61	?	P	d	435.98	NA	8	24	4	56	i	n	1286.27	1	1000	100	0	0
157	6	62	?	N	f	568.95	NA	2	56	8	24	i	n	703.57	1	1000	100	0	0
157	6	63	?	N	f	385.41	NA	4	24	9	56	c	n	570.21	1	100	100	0	0
157	6	64	?	N	f	369.27	NA	8	56	2	24	c	j	536.53	1	100	1000	0	0
157	6	65	?	N	f	386.27	NA	4	24	9	56	c	n	570.27	1	1000	100	0	0
