subj	block	trial	task_cue	task	choice_resp	choiceRT	choice_acc	topnum	topsize	botnum	botsize	cong	task_resp	taskRT	task_acc	RSI	CSI	altRep	E1
163	1	1	?	N	d	2653.97	NA	7	24	4	56	i	j	717.75	1	100	1000	-1	0
163	1	2	?	N	d	869.32	NA	7	56	3	24	c	j	519.04	1	100	1000	0	0
163	1	3	?	P	f	652.46	NA	9	24	4	56	i	j	702.51	0	1000	1000	0	0
163	1	4	?	N	d	1553.45	NA	2	24	8	56	c	n	652.1	1	100	1000	0	1
163	1	5	?	N	d	702.54	NA	3	56	8	24	i	n	735.79	1	100	1000	0	0
163	1	6	?	P	f	351.69	NA	7	56	2	24	c	n	1353.22	0	1000	100	0	0
163	1	7	?	P	f	518.16	NA	7	56	4	24	c	j	619.24	1	1000	1000	0	1
163	1	8	?	N	d	1386.97	NA	7	24	2	56	i	j	702.38	1	100	100	0	0
163	1	9	?	N	d	1887.09	NA	3	56	8	24	i	j	1320.09	0	100	100	0	0
163	1	10	?	N	d	802.31	NA	4	24	8	56	c	n	886.17	1	100	100	0	1
163	1	11	?	N	d	968.16	NA	2	56	9	24	i	n	702.49	1	100	100	0	0
163	1	12	?	P	f	785.73	NA	8	56	4	24	c	j	702.15	1	100	1000	0	0
163	1	13	?	P	f	352.16	NA	7	24	2	56	i	n	836.01	1	1000	100	0	0
163	1	14	?	P	f	1386.42	NA	3	56	7	24	i	j	1253.02	1	100	1000	0	0
163	1	15	?	N	d	468.1	NA	7	24	4	56	i	n	1019.45	0	1000	100	0	0
163	1	16	?	N	d	435.58	NA	7	24	3	56	i	j	919.61	1	1000	100	0	1
163	1	17	?	N	d	385.79	NA	4	24	9	56	c	n	502.31	1	1000	1000	0	0
163	1	18	?	N	d	719.13	NA	8	56	3	24	c	j	901.73	1	100	100	0	0
163	1	19	?	N	d	2871.82	NA	9	24	2	56	i	j	1053.03	1	100	1000	0	0
163	1	20	?	P	f	351.58	NA	3	56	8	24	i	j	986.81	1	1000	1000	0	0
163	1	21	?	P	f	302.47	NA	8	24	4	56	i	n	602.36	1	1000	1000	0	0
163	1	22	?	P	f	302.11	NA	3	24	9	56	c	n	568.88	1	1000	100	0	0
163	1	23	?	P	f	301.34	NA	4	56	7	24	i	j	418.56	1	1000	1000	0	0
163	1	24	?	P	f	368.9	NA	8	24	2	56	i	n	602.53	1	1000	1000	0	0
163	1	25	?	N	d	401.95	NA	9	56	4	24	c	j	1019.44	1	1000	100	0	0
163	1	26	?	N	d	318.65	NA	8	56	2	24	c	j	519.87	1	1000	1000	0	0
163	1	27	?	N	d	1653.37	NA	3	24	7	56	c	n	702.73	1	100	1000	0	0
163	1	28	?	N	d	1369.32	NA	2	56	7	24	i	n	886.06	1	100	100	0	0
163	1	29	?	P	f	301.29	NA	9	56	3	24	c	j	869.21	1	1000	100	0	0
163	1	30	?	N	d	302.25	NA	7	56	2	24	c	j	786.81	1	1000	1000	0	0
163	1	31	?	P	f	469.05	NA	9	56	4	24	c	j	584.36	1	1000	1000	0	0
163	1	32	?	P	f	918.03	NA	3	24	7	56	c	n	500.84	1	100	1000	0	0
163	1	33	?	N	d	3372.8	NA	7	24	2	56	i	j	1186.57	1	100	1000	0	0
163	1	34	?	N	d	335.66	NA	3	56	9	24	i	n	585.88	1	1000	100	0	0
163	1	35	?	N	d	485.88	NA	9	24	4	56	i	j	702.91	1	100	100	0	0
163	1	36	?	N	d	368.63	NA	2	24	8	56	c	n	552.82	1	100	1000	0	0
163	1	37	?	N	d	402.35	NA	9	24	4	56	i	j	602.5	1	1000	1000	0	0
163	1	38	?	N	d	418.19	NA	3	24	9	56	c	n	535.09	1	100	100	0	0
163	1	39	?	N	d	335.17	NA	4	56	9	24	i	n	519.0	1	1000	100	0	0
163	1	40	?	N	d	485.4	NA	2	24	8	56	c	n	617.8	1	1000	100	0	0
163	1	41	?	P	f	1636.76	NA	3	24	9	56	c	n	402.45	1	1000	1000	0	0
163	1	42	?	P	f	784.45	NA	7	24	2	56	i	n	452.1	1	100	100	0	0
163	1	43	?	P	f	385.79	NA	3	56	8	24	i	j	918.58	1	100	100	0	0
163	1	44	?	P	f	152.03	NA	4	24	8	56	c	n	602.62	1	1000	1000	0	0
163	1	45	?	P	f	702.46	NA	2	56	7	24	i	j	936.14	1	1000	1000	0	0
163	1	46	?	P	f	535.44	NA	3	24	7	56	c	n	552.23	1	100	100	0	0
163	1	47	?	P	f	435.6	NA	8	56	4	24	c	j	485.4	1	100	100	0	0
163	1	48	?	N	d	118.42	NA	7	24	3	56	i	j	1018.99	1	1000	100	0	0
163	1	49	?	N	d	218.78	NA	2	56	9	24	i	n	535.84	1	1000	100	0	0
163	1	50	?	N	d	202.03	NA	9	56	3	24	c	j	535.69	1	100	1000	0	0
163	1	51	?	N	d	234.78	NA	2	56	9	24	i	j	952.44	0	100	1000	0	0
163	1	52	?	N	d	151.92	NA	3	24	9	56	c	n	469.05	1	1000	100	0	1
163	1	53	?	N	d	285.41	NA	7	56	2	24	c	j	836.3	1	100	1000	0	0
163	1	54	?	N	d	368.62	NA	8	56	4	24	c	j	785.29	1	100	100	0	0
163	1	55	?	N	d	401.31	NA	8	56	3	24	c	j	785.92	1	100	100	0	0
163	1	56	?	N	d	434.46	NA	7	24	2	56	i	j	1069.22	1	100	1000	0	0
163	1	57	?	P	f	418.9	NA	8	56	3	24	c	j	1586.2	1	1000	100	0	0
163	1	58	?	P	f	318.8	NA	2	24	8	56	c	n	568.58	1	100	100	0	0
163	1	59	?	P	f	352.44	NA	3	56	9	24	i	j	484.81	1	100	100	0	0
163	1	60	?	P	f	34.13	NA	2	56	9	24	i	j	485.48	1	1000	100	0	0
163	1	61	?	P	f	185.41	NA	3	24	7	56	c	n	552.31	1	1000	1000	0	0
163	1	62	?	P	f	318.46	NA	7	24	2	56	i	n	986.22	1	1000	1000	0	0
163	1	63	?	P	f	135.46	NA	3	24	8	56	c	n	485.78	1	1000	100	0	0
163	1	64	?	P	f	335.58	NA	7	24	2	56	i	n	535.33	1	100	1000	0	0
163	1	65	?	P	f	335.55	NA	8	24	3	56	i	n	635.94	1	100	1000	0	0
163	2	1	?	P	f	702.81	NA	2	24	7	56	c	n	1870.79	1	1000	100	-1	0
163	2	2	?	P	f	319.22	NA	7	56	3	24	c	j	952.75	1	100	100	0	0
163	2	3	?	P	f	934.69	NA	9	24	4	56	i	n	836.16	1	100	1000	0	0
163	2	4	?	N	d	318.95	NA	2	24	8	56	c	n	819.34	1	1000	1000	0	0
163	2	5	?	N	d	452.15	NA	9	24	4	56	i	j	685.57	1	100	100	0	0
163	2	6	?	N	d	17.65	NA	3	56	7	24	i	n	1053.15	1	1000	1000	0	0
163	2	7	?	N	d	118.81	NA	2	56	9	24	i	n	1353.58	1	1000	1000	0	0
163	2	8	?	N	d	519.25	NA	4	24	9	56	c	n	669.09	1	100	1000	0	0
163	2	9	?	N	d	368.79	NA	7	56	3	24	c	j	652.59	1	100	100	0	0
163	2	10	?	N	d	302.25	NA	9	56	4	24	c	j	535.78	1	100	1000	0	0
163	2	11	?	N	d	118.14	NA	2	56	8	24	i	n	451.99	1	1000	1000	0	0
163	2	12	?	N	d	119.01	NA	9	24	3	56	i	j	969.78	1	1000	1000	0	0
163	2	13	?	P	f	235.16	NA	4	24	9	56	c	n	535.79	1	1000	1000	0	0
163	2	14	?	P	f	418.84	NA	3	24	7	56	c	n	568.15	1	1000	100	0	0
163	2	15	?	P	f	202.75	NA	2	24	8	56	c	n	635.12	1	100	100	0	0
163	2	16	?	P	f	134.77	NA	3	56	9	24	i	n	601.75	0	100	1000	0	0
163	2	17	?	P	f	151.92	NA	4	56	7	24	i	j	452.06	1	100	1000	0	1
163	2	18	?	P	f	151.83	NA	3	24	8	56	c	n	602.22	1	100	100	0	0
163	2	19	?	P	f	135.25	NA	7	24	4	56	i	n	619.49	1	100	1000	0	0
163	2	20	?	P	f	419.35	NA	7	56	2	24	c	j	635.89	1	100	100	0	0
163	2	21	?	P	f	118.65	NA	4	56	7	24	i	j	569.42	1	100	100	0	0
163	2	22	?	P	f	135.45	NA	9	24	3	56	i	n	702.07	1	100	1000	0	0
163	2	23	?	P	f	168.42	NA	2	24	9	56	c	n	518.8	1	100	1000	0	0
163	2	24	?	P	f	18.29	NA	4	56	9	24	i	j	468.98	1	1000	100	0	0
163	2	25	?	P	f	101.65	NA	8	56	3	24	c	j	601.98	1	100	1000	0	0
163	2	26	?	P	f	135.19	NA	8	56	4	24	c	j	401.31	1	100	1000	0	0
163	2	27	?	P	f	101.26	NA	3	24	9	56	c	n	1670.32	1	100	100	0	0
163	2	28	?	P	f	185.22	NA	9	24	4	56	i	n	985.35	1	100	100	0	0
163	2	29	?	N	d	735.27	NA	3	24	9	56	c	n	1420.13	1	100	100	0	0
163	2	30	?	N	d	101.91	NA	2	24	7	56	c	n	918.04	1	1000	1000	0	0
163	2	31	?	N	d	151.91	NA	3	56	7	24	i	j	652.4	0	100	100	0	0
163	2	32	?	N	d	50.8	NA	4	24	8	56	c	n	851.78	1	1000	1000	0	1
163	2	33	?	N	d	201.94	NA	2	24	9	56	c	n	652.72	1	1000	100	0	0
163	2	34	?	N	d	67.71	NA	8	56	4	24	c	j	669.07	1	1000	1000	0	0
163	2	35	?	N	d	67.2	NA	7	56	2	24	c	j	652.62	1	1000	1000	0	0
163	2	36	?	N	d	185.67	NA	3	56	9	24	i	n	1353.31	1	1000	100	0	0
163	2	37	?	N	d	168.78	NA	7	24	4	56	i	j	1252.75	1	1000	100	0	0
163	2	38	?	N	d	168.46	NA	7	24	2	56	i	j	1053.04	1	100	1000	0	0
163	2	39	?	N	d	68.64	NA	4	56	8	24	i	n	1002.68	1	1000	100	0	0
163	2	40	?	N	d	84.66	NA	8	24	2	56	i	j	719.29	1	1000	100	0	0
163	2	41	?	N	d	84.97	NA	3	24	8	56	c	n	785.94	1	100	1000	0	0
163	2	42	?	N	d	101.84	NA	7	24	4	56	i	j	1335.97	1	1000	1000	0	0
163	2	43	?	N	d	52.0	NA	8	56	3	24	c	j	718.13	1	1000	1000	0	0
163	2	44	?	P	f	1203.14	NA	7	56	4	24	c	j	902.62	1	1000	100	0	0
163	2	45	?	P	f	219.38	NA	7	56	3	24	c	j	519.87	1	1000	1000	0	0
163	2	46	?	P	f	152.2	NA	7	56	2	24	c	j	753.03	1	100	100	0	0
163	2	47	?	P	f	67.71	NA	9	56	3	24	c	j	567.75	1	1000	100	0	0
163	2	48	?	P	f	234.94	NA	2	24	7	56	c	n	1486.92	1	1000	100	0	0
163	2	49	?	P	f	101.36	NA	3	56	7	24	i	j	502.49	1	1000	1000	0	0
163	2	50	?	P	f	151.56	NA	2	56	9	24	i	j	934.34	1	100	100	0	0
163	2	51	?	P	f	51.54	NA	8	24	3	56	i	n	535.21	1	1000	100	0	0
163	2	52	?	P	f	118.58	NA	8	24	2	56	i	n	1036.34	1	100	100	0	0
163	2	53	?	P	f	51.8	NA	4	56	9	24	i	j	485.62	1	100	1000	0	0
163	2	54	?	P	f	51.71	NA	7	24	3	56	i	n	569.16	1	100	100	0	0
163	2	55	?	P	f	35.23	NA	8	56	4	24	c	j	419.01	1	100	1000	0	0
163	2	56	?	P	f	118.74	NA	2	56	7	24	i	j	468.9	1	1000	100	0	0
163	2	57	?	P	f	34.07	NA	9	24	3	56	i	n	685.68	1	100	1000	0	0
163	2	58	?	P	f	50.37	NA	8	24	2	56	i	n	702.14	1	1000	1000	0	0
163	2	59	?	P	f	184.65	NA	9	56	3	24	c	j	484.4	1	1000	100	0	0
163	2	60	?	P	f	101.76	NA	2	56	8	24	i	j	702.62	1	100	100	0	0
163	2	61	?	P	f	152.29	NA	3	24	8	56	c	n	502.53	1	1000	100	0	0
163	2	62	?	P	f	101.59	NA	2	24	9	56	c	j	468.69	0	100	1000	0	0
163	2	63	?	P	f	17.62	NA	8	24	3	56	i	n	1887.34	1	1000	100	0	1
163	2	64	?	N	d	552.01	NA	8	24	4	56	i	j	769.35	1	1000	1000	0	0
163	2	65	?	N	d	352.4	NA	8	56	3	24	c	j	585.11	1	1000	100	0	0
163	3	1	?	N	d	501.92	NA	4	24	9	56	c	n	3772.18	1	1000	1000	-1	0
163	3	2	?	N	d	419.15	NA	7	56	3	24	c	j	1787.28	1	1000	100	0	0
163	3	3	?	N	d	335.7	NA	2	24	7	56	c	n	652.14	1	100	100	0	0
163	3	4	?	N	d	118.42	NA	9	56	3	24	c	j	635.28	1	1000	100	0	0
163	3	5	?	N	d	135.43	NA	7	56	4	24	c	j	636.12	1	1000	1000	0	0
163	3	6	?	N	d	168.77	NA	9	56	2	24	c	j	636.0	1	1000	1000	0	0
163	3	7	?	N	d	18.54	NA	4	24	8	56	c	n	619.47	1	1000	1000	0	0
163	3	8	?	N	d	67.69	NA	3	56	9	24	i	n	819.88	1	1000	100	0	0
163	3	9	?	N	d	252.62	NA	8	24	2	56	i	j	1168.94	1	100	100	0	0
163	3	10	?	N	d	102.29	NA	9	56	3	24	c	j	601.61	1	100	1000	0	0
163	3	11	?	N	d	152.04	NA	2	24	8	56	c	n	552.2	1	100	1000	0	0
163	3	12	?	N	d	17.49	NA	4	56	8	24	i	n	2054.13	1	1000	1000	0	0
163	3	13	?	N	d	151.38	NA	3	56	9	24	i	n	685.78	1	100	100	0	0
163	3	14	?	N	d	118.8	NA	4	24	8	56	c	n	568.74	1	100	100	0	0
163	3	15	?	N	d	118.81	NA	2	24	9	56	c	n	468.93	1	100	1000	0	0
163	3	16	?	N	d	35.12	NA	7	24	4	56	i	n	518.64	0	1000	1000	0	0
163	3	17	?	N	d	318.6	NA	7	24	2	56	i	j	1353.39	1	100	1000	0	1
163	3	18	?	N	d	319.35	NA	8	24	3	56	i	j	602.64	1	100	100	0	0
163	3	19	?	N	d	1753.62	NA	4	56	8	24	i	n	652.72	1	100	100	0	0
163	3	20	?	N	d	1552.85	NA	2	56	7	24	i	n	568.45	1	1000	1000	0	0
163	3	21	?	N	d	852.95	NA	3	24	7	56	c	n	669.13	1	100	100	0	0
163	3	22	?	P	f	1236.48	NA	7	56	2	24	c	j	786.38	1	100	100	0	0
163	3	23	?	P	f	585.45	NA	7	56	4	24	c	j	518.6	1	100	1000	0	0
163	3	24	?	P	f	1936.69	NA	9	56	2	24	c	j	552.35	1	1000	1000	0	0
163	3	25	?	P	f	535.43	NA	4	56	8	24	i	j	1236.73	1	1000	1000	0	0
163	3	26	?	P	f	201.97	NA	3	56	7	24	i	j	802.89	1	1000	100	0	0
163	3	27	?	P	f	368.83	NA	2	24	8	56	c	n	786.04	1	100	1000	0	0
163	3	28	?	P	f	301.52	NA	7	24	3	56	i	n	635.85	1	100	100	0	0
163	3	29	?	P	f	185.37	NA	7	24	2	56	i	n	652.72	1	1000	100	0	0
163	3	30	?	P	f	285.42	NA	7	56	3	24	c	j	701.32	1	100	1000	0	0
163	3	31	?	P	f	51.84	NA	7	24	4	56	i	n	702.44	1	1000	100	0	0
163	3	32	?	P	f	251.94	NA	3	56	8	24	i	j	451.9	1	100	1000	0	0
163	3	33	?	P	f	68.45	NA	4	56	9	24	i	j	452.26	1	1000	100	0	0
163	3	34	?	P	f	268.58	NA	3	56	8	24	i	j	652.94	1	1000	1000	0	0
163	3	35	?	P	f	151.98	NA	9	24	2	56	i	n	952.55	1	100	1000	0	0
163	3	36	?	P	f	185.21	NA	7	56	3	24	c	j	719.42	1	100	100	0	0
163	3	37	?	P	f	119.57	NA	2	56	8	24	i	j	519.57	1	1000	100	0	0
163	3	38	?	P	f	68.38	NA	3	24	8	56	c	n	535.71	1	1000	1000	0	0
163	3	39	?	P	f	150.36	NA	8	56	2	24	c	j	469.11	1	1000	100	0	0
163	3	40	?	P	f	85.17	NA	4	56	9	24	i	j	718.92	1	1000	1000	0	0
163	3	41	?	P	f	118.76	NA	8	56	2	24	c	j	602.36	1	100	100	0	0
163	3	42	?	P	f	68.27	NA	4	24	8	56	c	n	569.43	1	100	100	0	0
163	3	43	?	P	f	134.59	NA	7	24	3	56	i	n	903.45	1	100	100	0	0
163	3	44	?	P	f	69.34	NA	8	24	2	56	i	n	686.34	1	100	1000	0	0
163	3	45	?	P	f	118.66	NA	9	24	3	56	i	n	652.64	1	100	1000	0	0
163	3	46	?	P	f	118.61	NA	8	24	2	56	i	n	769.08	1	1000	1000	0	0
163	3	47	?	P	f	101.72	NA	9	56	3	24	c	j	535.23	1	1000	1000	0	0
163	3	48	?	P	f	201.8	NA	2	24	7	56	c	n	452.42	1	1000	100	0	0
163	3	49	?	N	d	2371.31	NA	7	24	4	56	i	n	1670.35	0	100	100	0	0
163	3	50	?	N	d	1170.22	NA	3	24	8	56	c	n	1103.18	1	1000	1000	0	1
163	3	51	?	P	f	501.8	NA	7	56	2	24	c	j	617.83	1	100	100	0	0
163	3	52	?	N	d	452.23	NA	4	24	8	56	c	n	1186.13	1	100	1000	0	0
163	3	53	?	P	f	385.13	NA	2	24	8	56	c	n	535.7	1	1000	1000	0	0
163	3	54	?	N	d	786.25	NA	7	24	4	56	i	j	2587.32	1	1000	100	0	0
163	3	55	?	P	f	685.21	NA	2	56	7	24	i	j	902.79	1	100	1000	0	0
163	3	56	?	P	f	1153.11	NA	3	56	8	24	i	j	685.93	1	100	100	0	0
163	3	57	?	N	d	1036.09	NA	7	56	2	24	c	j	1420.35	1	100	1000	0	0
163	3	58	?	P	f	1.72	NA	9	24	3	56	i	n	735.83	1	1000	1000	0	0
163	3	59	?	P	f	385.65	NA	2	24	8	56	c	n	669.6	1	1000	100	0	0
163	3	60	?	N	d	485.67	NA	8	24	4	56	i	j	1870.6	1	100	1000	0	0
163	3	61	?	P	f	1620.22	NA	3	24	7	56	c	n	585.92	1	1000	100	0	0
163	3	62	?	P	f	318.7	NA	8	56	4	24	c	j	585.64	1	1000	100	0	0
163	3	63	?	P	f	2020.72	NA	2	24	7	56	c	n	469.19	1	1000	100	0	0
163	3	64	?	N	d	517.76	NA	4	56	7	24	i	n	1537.33	1	100	1000	0	0
163	3	65	?	N	d	134.6	NA	2	56	9	24	i	n	785.56	1	1000	100	0	0
163	4	1	?	N	d	702.85	NA	3	24	7	56	c	n	636.13	1	100	100	-1	0
163	4	2	?	N	d	18.24	NA	9	24	2	56	i	j	836.11	1	1000	1000	0	0
163	4	3	?	N	d	369.2	NA	8	24	4	56	i	j	669.1	1	100	1000	0	0
163	4	4	?	N	d	235.38	NA	7	56	3	24	c	j	602.44	1	100	1000	0	0
163	4	5	?	P	f	2220.93	NA	2	24	8	56	c	n	602.77	1	100	100	0	0
163	4	6	?	P	f	534.87	NA	7	24	3	56	i	n	435.64	1	100	1000	0	0
163	4	7	?	P	f	101.91	NA	2	24	8	56	c	n	552.5	1	1000	1000	0	0
163	4	8	?	P	f	151.87	NA	8	56	3	24	c	j	720.17	1	1000	100	0	0
163	4	9	?	P	f	84.99	NA	7	24	2	56	i	n	1068.43	1	1000	1000	0	0
163	4	10	?	N	d	1820.42	NA	7	56	4	24	c	j	619.29	1	1000	1000	0	0
163	4	11	?	N	d	451.44	NA	3	56	7	24	i	n	919.34	1	1000	100	0	0
163	4	12	?	N	d	319.01	NA	7	56	4	24	c	j	585.98	1	1000	1000	0	0
163	4	13	?	N	d	368.46	NA	3	56	8	24	i	n	1319.68	1	1000	1000	0	0
163	4	14	?	N	d	550.94	NA	4	56	8	24	i	n	1469.59	1	100	1000	0	0
163	4	15	?	N	d	35.19	NA	7	56	2	24	c	j	652.34	1	1000	100	0	0
163	4	16	?	N	d	302.24	NA	7	24	4	56	i	j	1336.8	1	100	1000	0	0
163	4	17	?	N	d	485.08	NA	3	24	8	56	c	n	652.64	1	100	100	0	0
163	4	18	?	N	d	136.02	NA	2	56	8	24	i	n	584.29	1	100	100	0	0
163	4	19	?	N	d	101.31	NA	9	24	4	56	i	j	585.62	1	1000	100	0	0
163	4	20	?	N	d	168.19	NA	2	24	9	56	c	n	669.09	1	1000	1000	0	0
163	4	21	?	N	d	569.29	NA	3	56	9	24	i	n	785.85	1	100	100	0	0
163	4	22	?	N	d	235.31	NA	4	24	8	56	c	n	518.82	1	100	1000	0	0
163	4	23	?	N	d	102.03	NA	8	24	2	56	i	j	652.6	1	1000	100	0	0
163	4	24	?	N	d	168.73	NA	3	24	9	56	c	n	652.84	1	100	1000	0	0
163	4	25	?	N	d	68.58	NA	8	24	4	56	i	j	718.94	1	1000	1000	0	0
163	4	26	?	N	d	50.93	NA	8	56	2	24	c	j	619.15	1	1000	1000	0	0
163	4	27	?	N	d	102.0	NA	4	56	8	24	i	n	819.33	1	1000	1000	0	0
163	4	28	?	N	d	418.39	NA	7	24	2	56	i	j	2187.7	1	1000	100	0	0
163	4	29	?	N	d	218.42	NA	8	56	3	24	c	j	785.72	1	100	1000	0	0
163	4	30	?	P	f	818.67	NA	7	56	4	24	c	j	502.33	1	100	100	0	0
163	4	31	?	P	f	268.27	NA	8	56	3	24	c	j	635.81	1	100	1000	0	0
163	4	32	?	P	f	435.63	NA	2	24	7	56	c	n	619.13	1	1000	1000	0	0
163	4	33	?	P	f	418.61	NA	8	56	4	24	c	j	835.28	1	100	100	0	0
163	4	34	?	P	f	400.89	NA	3	56	9	24	i	n	585.58	0	1000	100	0	0
163	4	35	?	P	f	152.46	NA	4	24	8	56	c	n	568.47	1	1000	100	0	1
163	4	36	?	P	f	318.79	NA	8	24	2	56	i	n	735.81	1	1000	100	0	0
163	4	37	?	P	f	285.49	NA	4	24	7	56	c	n	602.68	1	100	100	0	0
163	4	38	?	P	f	67.23	NA	8	56	2	24	c	j	435.31	1	1000	100	0	0
163	4	39	?	P	f	335.55	NA	4	56	8	24	i	j	601.84	1	100	1000	0	0
163	4	40	?	P	f	233.87	NA	3	24	8	56	c	n	534.78	1	1000	1000	0	0
163	4	41	?	P	f	1036.35	NA	4	24	7	56	c	n	769.42	1	100	100	0	0
163	4	42	?	P	f	118.44	NA	2	56	8	24	i	j	602.23	1	100	100	0	0
163	4	43	?	P	f	84.86	NA	7	56	4	24	c	j	502.3	1	100	100	0	0
163	4	44	?	P	f	118.62	NA	7	24	3	56	i	n	502.07	1	100	100	0	0
163	4	45	?	P	f	435.81	NA	8	56	2	24	c	j	684.62	1	1000	100	0	0
163	4	46	?	P	f	318.88	NA	4	24	7	56	c	n	518.02	1	1000	100	0	0
163	4	47	?	P	f	385.23	NA	3	56	9	24	i	j	602.07	1	100	100	0	0
163	4	48	?	P	f	252.27	NA	2	24	9	56	c	n	469.16	1	100	1000	0	0
163	4	49	?	P	f	1570.13	NA	4	24	9	56	c	n	485.39	1	100	1000	0	0
163	4	50	?	N	d	1269.1	NA	2	56	8	24	i	n	1568.71	1	100	100	0	0
163	4	51	?	N	d	452.71	NA	4	56	9	24	i	n	618.76	1	1000	100	0	0
163	4	52	?	N	d	502.87	NA	9	24	2	56	i	j	1219.5	1	100	100	0	0
163	4	53	?	N	d	335.77	NA	4	56	9	24	i	n	2037.25	1	1000	1000	0	0
163	4	54	?	N	d	185.58	NA	7	56	2	24	c	j	618.77	1	1000	1000	0	0
163	4	55	?	N	d	235.28	NA	9	24	3	56	i	j	1069.36	1	100	100	0	0
163	4	56	?	N	d	117.95	NA	2	56	9	24	i	n	602.2	1	1000	100	0	0
163	4	57	?	N	d	68.32	NA	9	24	4	56	i	j	869.33	1	1000	1000	0	0
163	4	58	?	N	d	635.93	NA	2	56	9	24	i	n	886.19	1	100	1000	0	0
163	4	59	?	N	d	1336.94	NA	8	24	4	56	i	j	619.35	1	1000	1000	0	0
163	4	60	?	N	d	318.77	NA	2	24	9	56	c	n	636.01	1	1000	100	0	0
163	4	61	?	N	d	1587.12	NA	4	56	7	24	i	n	802.76	1	100	1000	0	0
163	4	62	?	N	d	2419.8	NA	7	56	2	24	c	j	585.45	1	100	1000	0	0
163	4	63	?	N	d	852.79	NA	9	56	3	24	c	j	485.35	1	100	100	0	0
163	4	64	?	N	d	185.33	NA	4	24	7	56	c	n	535.37	1	1000	100	0	0
163	4	65	?	N	d	385.71	NA	7	24	3	56	i	j	618.69	1	100	1000	0	0
163	5	1	?	N	d	168.71	NA	8	56	3	24	c	j	1319.68	1	1000	1000	-1	0
163	5	2	?	N	d	302.06	NA	8	56	2	24	c	j	652.44	1	1000	100	0	0
163	5	3	?	N	d	268.36	NA	8	56	3	24	c	j	535.74	1	100	1000	0	0
163	5	4	?	N	d	251.73	NA	4	56	8	24	i	n	619.01	1	100	1000	0	0
163	5	5	?	N	d	235.28	NA	9	56	2	24	c	j	603.04	1	100	100	0	0
163	5	6	?	N	d	318.83	NA	4	24	7	56	c	n	836.34	1	1000	1000	0	0
163	5	7	?	N	d	234.44	NA	2	56	8	24	i	n	702.17	1	100	100	0	0
163	5	8	?	N	d	235.38	NA	4	24	9	56	c	n	1002.8	1	100	100	0	0
163	5	9	?	N	d	218.7	NA	2	24	9	56	c	n	467.97	1	100	1000	0	0
163	5	10	?	N	d	17.75	NA	7	24	3	56	i	j	702.64	1	1000	1000	0	0
163	5	11	?	N	d	318.73	NA	8	24	4	56	i	j	586.12	1	1000	100	0	0
163	5	12	?	P	f	1069.86	NA	2	56	8	24	i	n	619.19	0	100	100	0	0
163	5	13	?	P	f	285.04	NA	9	56	4	24	c	j	618.23	1	1000	100	0	1
163	5	14	?	P	f	268.72	NA	8	56	3	24	c	j	485.75	1	100	100	0	0
163	5	15	?	P	f	135.26	NA	8	56	4	24	c	j	519.04	1	100	1000	0	0
163	5	16	?	P	f	218.35	NA	3	24	8	56	c	n	569.4	1	1000	100	0	0
163	5	17	?	P	f	151.72	NA	2	24	8	56	c	n	652.43	1	100	1000	0	0
163	5	18	?	P	f	134.33	NA	4	24	8	56	c	n	534.82	1	100	100	0	0
163	5	19	?	P	f	85.06	NA	7	24	3	56	i	n	469.22	1	100	100	0	0
163	5	20	?	P	f	67.43	NA	8	24	4	56	i	n	468.64	1	100	100	0	0
163	5	21	?	P	f	133.8	NA	7	24	2	56	i	n	769.59	1	100	1000	0	0
163	5	22	?	P	f	184.86	NA	4	56	9	24	i	j	486.37	1	1000	1000	0	0
163	5	23	?	P	f	18.51	NA	3	24	9	56	c	n	519.22	1	1000	1000	0	0
163	5	24	?	P	f	535.78	NA	9	56	2	24	c	j	585.9	1	1000	100	0	0
163	5	25	?	P	f	368.56	NA	8	56	3	24	c	j	518.86	1	1000	1000	0	0
163	5	26	?	P	f	285.5	NA	7	24	4	56	i	n	619.08	1	1000	1000	0	0
163	5	27	?	P	f	352.23	NA	3	56	7	24	i	n	585.75	0	100	1000	0	0
163	5	28	?	P	f	385.55	NA	8	24	4	56	i	n	502.31	1	1000	100	0	1
163	5	29	?	P	f	484.82	NA	9	24	3	56	i	n	785.69	1	1000	1000	0	0
163	5	30	?	P	f	468.97	NA	4	24	8	56	c	n	435.04	1	1000	1000	0	0
163	5	31	?	P	f	1186.27	NA	3	56	9	24	i	j	869.03	1	1000	100	0	0
163	5	32	?	N	d	185.65	NA	2	24	7	56	c	n	552.83	1	1000	100	0	0
163	5	33	?	N	d	402.33	NA	3	24	8	56	c	n	552.29	1	100	1000	0	0
163	5	34	?	N	d	185.54	NA	9	56	2	24	c	j	652.3	1	100	100	0	0
163	5	35	?	N	d	519.29	NA	4	24	9	56	c	n	502.03	1	100	100	0	0
163	5	36	?	N	d	301.85	NA	9	24	2	56	i	j	619.19	1	1000	100	0	0
163	5	37	?	N	d	284.77	NA	9	24	4	56	i	j	735.59	1	1000	100	0	0
163	5	38	?	N	d	552.44	NA	3	56	8	24	i	n	935.69	1	1000	100	0	0
163	5	39	?	N	d	1286.41	NA	4	56	8	24	i	n	819.45	1	100	100	0	0
163	5	40	?	N	d	1470.0	NA	2	24	7	56	c	n	652.52	1	100	100	0	0
163	5	41	?	N	d	1853.84	NA	9	24	4	56	i	j	869.4	1	100	100	0	0
163	5	42	?	N	d	485.76	NA	2	56	9	24	i	n	585.58	1	100	1000	0	0
163	5	43	?	N	d	301.56	NA	3	56	7	24	i	n	585.49	1	1000	100	0	0
163	5	44	?	N	d	301.52	NA	7	56	2	24	c	j	635.64	1	1000	1000	0	0
163	5	45	?	N	d	18.92	NA	3	24	8	56	c	n	820.36	1	1000	100	0	0
163	5	46	?	N	d	268.66	NA	8	56	2	24	c	j	852.92	1	100	100	0	0
163	5	47	?	N	d	133.99	NA	4	56	8	24	i	n	686.1	1	1000	100	0	0
163	5	48	?	N	d	235.42	NA	7	24	3	56	i	j	568.79	1	1000	1000	0	0
163	5	49	?	N	d	235.24	NA	7	24	4	56	i	j	785.85	1	100	1000	0	0
163	5	50	?	N	d	134.01	NA	2	56	8	24	i	n	836.17	1	1000	1000	0	0
163	5	51	?	P	f	1403.1	NA	7	56	3	24	c	j	718.89	1	100	1000	0	0
163	5	52	?	P	f	352.42	NA	2	24	8	56	c	n	519.54	1	1000	1000	0	0
163	5	53	?	P	f	802.5	NA	8	24	4	56	i	n	834.87	1	100	1000	0	0
163	5	54	?	P	f	219.27	NA	7	56	3	24	c	j	585.68	1	100	1000	0	0
163	5	55	?	P	f	335.5	NA	2	24	7	56	c	n	418.91	1	100	1000	0	0
163	5	56	?	P	f	200.95	NA	4	56	8	24	i	j	802.54	1	100	100	0	0
163	5	57	?	P	f	235.58	NA	8	56	2	24	c	j	536.33	1	1000	1000	0	0
163	5	58	?	P	f	202.11	NA	4	56	8	24	i	j	619.05	1	100	1000	0	0
163	5	59	?	P	f	101.47	NA	7	56	3	24	c	j	435.21	1	1000	1000	0	0
163	5	60	?	P	f	402.23	NA	7	24	2	56	i	n	619.25	1	1000	1000	0	0
163	5	61	?	P	f	518.63	NA	8	56	3	24	c	j	585.96	1	1000	100	0	0
163	5	62	?	N	d	1119.58	NA	9	24	4	56	i	j	819.26	1	100	100	0	0
163	5	63	?	N	d	468.96	NA	9	24	3	56	i	j	551.54	1	1000	1000	0	0
163	5	64	?	N	d	1820.54	NA	7	24	2	56	i	j	1120.07	1	100	1000	0	0
163	5	65	?	N	d	352.42	NA	4	24	9	56	c	n	700.72	1	1000	100	0	0
163	6	1	?	P	f	636.06	NA	8	24	3	56	i	n	5090.83	1	100	100	-1	0
163	6	2	?	P	f	903.12	NA	2	24	9	56	c	n	3772.52	1	1000	1000	0	0
163	6	3	?	P	f	853.09	NA	8	56	3	24	c	j	2537.97	1	1000	1000	0	0
163	6	4	?	P	f	1403.43	NA	7	24	2	56	i	n	1552.39	1	1000	100	0	0
163	6	5	?	P	f	401.39	NA	8	56	3	24	c	j	502.35	1	100	1000	0	0
163	6	6	?	P	f	252.09	NA	4	24	8	56	c	n	535.87	1	1000	100	0	0
163	6	7	?	P	f	252.15	NA	9	24	3	56	i	n	918.9	1	1000	100	0	0
163	6	8	?	P	f	151.37	NA	2	24	9	56	c	n	468.05	1	1000	1000	0	0
163	6	9	?	P	f	385.6	NA	8	56	3	24	c	j	968.37	1	100	100	0	0
163	6	10	?	P	f	368.95	NA	4	56	8	24	i	j	1120.22	1	100	100	0	0
163	6	11	?	P	f	335.82	NA	7	24	3	56	i	n	617.56	1	100	1000	0	0
163	6	12	?	P	f	101.94	NA	2	24	8	56	c	n	469.07	1	1000	100	0	0
163	6	13	?	P	f	418.8	NA	8	24	3	56	i	n	718.56	1	100	1000	0	0
163	6	14	?	P	f	285.78	NA	8	56	4	24	c	j	652.46	1	1000	100	0	0
163	6	15	?	N	d	402.27	NA	7	56	3	24	c	j	1153.01	1	100	100	0	0
163	6	16	?	N	d	135.58	NA	4	56	9	24	i	j	669.27	0	1000	100	0	0
163	6	17	?	N	d	302.05	NA	9	24	3	56	i	j	551.46	1	1000	100	0	1
163	6	18	?	N	d	551.96	NA	8	56	2	24	c	j	551.69	1	100	1000	0	0
163	6	19	?	N	d	301.58	NA	8	24	3	56	i	j	602.38	1	1000	100	0	0
163	6	20	?	N	d	1620.22	NA	7	56	2	24	c	j	618.81	1	100	1000	0	0
163	6	21	?	N	d	418.91	NA	4	56	9	24	i	j	435.66	0	1000	1000	0	0
163	6	22	?	N	d	334.33	NA	9	24	3	56	i	j	769.33	1	1000	1000	0	1
163	6	23	?	N	d	368.79	NA	4	56	8	24	i	n	1136.13	1	1000	1000	0	0
163	6	24	?	N	d	352.29	NA	7	56	2	24	c	j	635.78	1	1000	1000	0	0
163	6	25	?	N	d	3004.96	NA	4	56	8	24	i	n	986.12	1	100	100	0	0
163	6	26	?	N	d	402.12	NA	8	56	3	24	c	j	585.21	1	1000	1000	0	0
163	6	27	?	N	d	902.68	NA	8	56	2	24	c	j	502.52	1	100	100	0	0
163	6	28	?	N	d	402.5	NA	4	56	7	24	i	n	752.72	1	1000	100	0	0
163	6	29	?	N	d	1820.28	NA	2	24	9	56	c	n	536.0	1	100	1000	0	0
163	6	30	?	N	d	1068.42	NA	9	24	3	56	i	j	635.95	1	100	100	0	0
163	6	31	?	N	d	352.02	NA	9	56	4	24	c	j	519.0	1	1000	100	0	0
163	6	32	?	N	d	369.34	NA	8	24	2	56	i	n	786.1	0	1000	100	0	0
163	6	33	?	N	d	751.29	NA	7	24	4	56	i	j	1837.14	1	100	1000	0	1
163	6	34	?	N	d	368.67	NA	3	56	7	24	i	n	618.93	1	1000	1000	0	0
163	6	35	?	N	d	434.33	NA	8	24	4	56	i	j	818.2	1	100	100	0	0
163	6	36	?	N	d	352.03	NA	3	24	8	56	c	n	551.52	1	100	1000	0	0
163	6	37	?	N	d	385.87	NA	7	24	4	56	i	j	702.61	1	100	1000	0	0
163	6	38	?	N	d	402.01	NA	7	56	3	24	c	j	634.79	1	100	100	0	0
163	6	39	?	N	d	568.91	NA	2	24	9	56	c	n	485.6	1	100	100	0	0
163	6	40	?	N	d	884.73	NA	3	24	9	56	c	n	469.07	1	100	100	0	0
163	6	41	?	N	d	351.93	NA	2	56	7	24	i	n	752.88	1	100	1000	0	0
163	6	42	?	N	d	936.52	NA	3	24	7	56	c	n	452.23	1	100	1000	0	0
163	6	43	?	P	f	652.59	NA	7	24	2	56	i	n	3405.33	1	1000	1000	0	0
163	6	44	?	P	f	352.2	NA	4	56	7	24	i	j	1620.32	1	100	100	0	0
163	6	45	?	P	f	318.52	NA	8	56	2	24	c	j	586.18	1	100	1000	0	0
163	6	46	?	P	f	302.35	NA	4	24	8	56	c	n	635.91	1	1000	1000	0	0
163	6	47	?	P	f	285.43	NA	3	56	8	24	i	j	1019.24	1	1000	1000	0	0
163	6	48	?	P	f	452.02	NA	4	24	7	56	c	n	619.31	1	100	100	0	0
163	6	49	?	P	f	318.84	NA	8	24	3	56	i	n	601.8	1	100	100	0	0
163	6	50	?	P	f	185.43	NA	4	56	9	24	i	j	718.85	1	1000	1000	0	0
163	6	51	?	P	f	369.04	NA	2	24	8	56	c	n	535.7	1	100	100	0	0
163	6	52	?	P	f	302.01	NA	4	56	8	24	i	j	619.34	1	1000	1000	0	0
163	6	53	?	P	f	18.56	NA	2	24	7	56	c	n	468.79	1	1000	100	0	0
163	6	54	?	P	f	335.51	NA	8	56	3	24	c	j	886.43	1	1000	1000	0	0
163	6	55	?	P	f	401.75	NA	9	56	2	24	c	j	517.43	1	1000	100	0	0
163	6	56	?	P	f	319.41	NA	3	56	7	24	i	j	819.61	1	1000	100	0	0
163	6	57	?	P	f	651.24	NA	2	56	9	24	i	j	385.74	1	100	1000	0	0
163	6	58	?	P	f	335.7	NA	3	24	8	56	c	n	501.76	1	1000	1000	0	0
163	6	59	?	P	f	669.35	NA	4	24	9	56	c	n	502.1	1	100	1000	0	0
163	6	60	?	P	f	1737.17	NA	3	56	9	24	i	j	602.41	1	100	1000	0	0
163	6	61	?	P	f	285.44	NA	2	24	7	56	c	n	519.19	1	1000	100	0	0
163	6	62	?	P	f	535.72	NA	7	24	3	56	i	n	484.86	1	100	100	0	0
163	6	63	?	P	f	401.98	NA	7	24	4	56	i	n	452.76	1	100	1000	0	0
163	6	64	?	P	f	418.2	NA	8	24	2	56	i	n	502.77	1	100	100	0	0
163	6	65	?	P	f	302.25	NA	8	56	4	24	c	j	602.71	1	1000	100	0	0
