subj	block	trial	task_cue	task	choice_resp	choiceRT	choice_acc	topnum	topsize	botnum	botsize	cong	task_resp	taskRT	task_acc	RSI	CSI	altRep	E1
166	1	1	P	P	d	1003.04	1	4	56	9	24	i	j	2604.68	1	100	100	-1	0
166	1	2	P	P	d	1586.9	1	9	24	3	56	i	n	2788.16	1	1000	1000	0	0
166	1	3	N	N	f	1436.49	0	7	24	4	56	i	j	1303.51	1	100	1000	1	0
166	1	4	N	N	f	2304.96	0	7	56	2	24	c	j	1419.36	1	1000	100	0	0
166	1	5	N	N	f	1954.04	0	3	24	9	56	c	n	1453.51	1	1000	1000	0	0
166	1	6	P	P	d	869.55	1	7	24	2	56	i	n	1136.09	1	1000	1000	1	0
166	1	7	N	N	f	1069.69	0	3	56	7	24	i	n	1153.56	1	100	1000	1	0
166	1	8	N	N	f	1569.81	0	7	24	4	56	i	j	852.93	1	1000	1000	0	0
166	1	9	N	N	f	1085.9	0	9	24	3	56	i	j	953.55	1	100	100	0	0
166	1	10	P	P	d	819.16	1	9	24	2	56	i	n	752.56	1	1000	100	1	0
166	1	11	P	P	d	767.96	1	3	56	8	24	i	j	2053.36	1	100	100	0	0
166	1	12	P	P	d	986.67	1	8	24	2	56	i	n	852.74	1	100	1000	0	0
166	1	13	P	P	d	1819.64	1	7	24	3	56	i	n	1203.16	1	1000	100	0	0
166	1	14	P	P	d	852.69	1	4	24	9	56	c	n	668.25	1	1000	1000	0	0
166	1	15	N	N	f	1987.15	0	3	24	8	56	c	j	2021.51	0	100	100	1	0
166	1	16	P	P	d	2921.6	1	4	24	7	56	c	n	1053.23	1	100	100	1	1
166	1	17	N	N	f	2003.1	0	2	24	9	56	c	n	1403.97	1	1000	100	1	0
166	1	18	N	N	f	1804.01	0	4	56	9	24	i	n	936.63	1	100	1000	0	0
166	1	19	P	P	d	769.36	1	3	24	7	56	c	n	685.9	1	1000	1000	1	0
166	1	20	P	P	d	1336.35	1	7	56	2	24	c	j	953.27	1	100	100	0	0
166	1	21	P	P	d	1036.22	1	4	56	9	24	i	j	569.28	1	100	1000	0	0
166	1	22	P	P	d	669.21	1	7	56	2	24	c	j	702.54	1	1000	100	0	0
166	1	23	N	N	d	952.88	0	7	24	3	56	i	j	2837.36	1	1000	1000	1	0
166	1	24	P	P	d	1785.78	1	9	56	2	24	c	j	2554.38	1	100	100	1	0
166	1	25	P	P	d	1352.77	1	7	56	4	24	c	j	935.91	1	1000	1000	0	0
166	1	26	N	N	f	1470.1	0	7	24	2	56	i	j	1920.74	1	100	100	1	0
166	1	27	P	P	d	719.12	1	8	24	3	56	i	n	769.15	1	100	1000	1	0
166	1	28	N	N	f	1703.66	0	8	56	2	24	c	j	1386.6	1	1000	100	1	0
166	1	29	N	N	f	1102.47	0	3	24	9	56	c	n	2102.72	1	1000	100	0	0
166	1	30	N	N	f	1386.46	0	4	56	8	24	i	n	1318.47	1	100	100	0	0
166	1	31	N	N	f	635.75	0	3	24	8	56	c	n	552.21	1	100	1000	0	0
166	1	32	P	P	d	1185.33	1	7	56	2	24	c	j	718.63	1	100	1000	1	0
166	1	33	N	N	f	1170.08	0	4	56	8	24	i	n	1520.98	1	1000	100	1	0
166	1	34	P	P	d	935.94	1	2	56	7	24	i	j	1803.96	1	100	1000	1	0
166	1	35	P	P	d	1103.78	1	3	56	9	24	i	j	618.81	1	1000	1000	0	0
166	1	36	N	N	f	735.72	0	8	56	2	24	c	j	652.95	1	1000	1000	1	0
166	1	37	N	N	f	1051.94	0	8	24	4	56	i	j	1069.32	1	100	1000	0	0
166	1	38	N	N	f	885.96	0	2	56	8	24	i	n	1370.36	1	1000	1000	0	0
166	1	39	P	P	d	519.4	1	3	24	7	56	c	n	685.27	1	1000	100	1	0
166	1	40	P	P	d	569.66	1	4	24	8	56	c	n	485.11	1	100	100	0	0
166	1	41	P	P	d	419.07	1	8	56	3	24	c	j	1235.64	1	100	1000	0	0
166	1	42	N	N	f	2237.08	0	8	56	4	24	c	j	651.71	1	100	1000	1	0
166	1	43	P	P	d	551.78	1	3	56	7	24	i	n	1485.2	0	1000	100	1	0
166	1	44	P	P	d	2053.53	1	2	24	8	56	c	n	669.53	1	100	1000	0	1
166	1	45	N	N	f	736.09	0	3	24	8	56	c	n	1719.86	1	1000	1000	1	0
166	1	46	P	P	d	802.92	1	4	24	7	56	c	n	869.78	1	100	1000	1	0
166	1	47	N	N	f	802.49	0	2	24	9	56	c	j	619.21	0	100	1000	1	0
166	1	48	P	P	d	2205.11	1	7	56	3	24	c	j	1336.09	1	1000	1000	1	1
166	1	49	N	N	f	1436.11	0	9	56	4	24	c	j	1037.01	1	100	100	1	0
166	1	50	N	N	f	1002.78	0	8	56	3	24	c	j	736.33	1	1000	1000	0	0
166	1	51	N	N	f	986.56	0	4	56	9	24	i	n	2154.46	1	1000	100	0	0
166	1	52	N	N	f	3155.38	0	8	56	3	24	c	j	3137.75	1	100	100	0	0
166	1	53	N	N	f	1019.16	0	7	24	4	56	i	j	1336.72	1	1000	100	0	0
166	1	54	N	N	f	819.07	0	3	24	7	56	c	n	2187.94	1	100	100	0	0
166	1	55	P	P	d	753.47	1	9	56	4	24	c	j	1170.26	1	1000	100	1	0
166	1	56	P	P	d	602.36	1	7	24	2	56	i	n	652.17	1	100	100	0	0
166	1	57	N	N	f	552.43	0	3	56	8	24	i	n	1019.66	1	1000	1000	1	0
166	1	58	N	N	f	785.98	0	7	56	4	24	c	j	1053.49	1	100	1000	0	0
166	1	59	P	P	d	819.35	1	3	56	7	24	i	j	1403.0	1	100	100	1	0
166	1	60	N	N	f	802.24	0	4	56	9	24	i	j	1269.82	0	100	100	1	0
166	1	61	P	P	d	1687.29	1	3	56	9	24	i	j	2488.36	1	1000	1000	1	1
166	1	62	N	N	f	752.47	0	9	24	2	56	i	j	801.72	1	1000	100	1	0
166	1	63	P	P	d	885.29	1	9	24	4	56	i	n	1302.52	1	100	100	1	0
166	1	64	P	P	d	837.26	1	2	24	7	56	c	n	1753.65	1	1000	100	0	0
166	1	65	P	P	d	1303.78	1	3	56	9	24	i	j	1886.42	1	1000	100	0	0
166	2	1	P	P	d	1051.21	1	8	24	4	56	i	n	1119.68	1	1000	1000	-1	0
166	2	2	N	N	f	1052.91	0	2	56	8	24	i	n	1536.77	1	100	100	1	0
166	2	3	P	P	d	585.62	1	3	24	8	56	c	n	669.2	1	1000	1000	1	0
166	2	4	P	P	d	886.67	1	8	56	4	24	c	j	769.37	1	1000	100	0	0
166	2	5	P	P	d	619.06	1	2	56	7	24	i	j	702.51	1	100	100	0	0
166	2	6	N	N	f	734.97	0	3	56	8	24	i	n	769.69	1	100	1000	1	0
166	2	7	N	N	f	1036.76	0	4	56	7	24	i	n	818.09	1	100	1000	0	0
166	2	8	N	N	f	835.91	0	7	56	3	24	c	j	1319.63	1	1000	1000	0	0
166	2	9	N	N	f	653.06	0	7	24	4	56	i	j	936.22	1	1000	100	0	0
166	2	10	N	N	f	852.78	0	2	56	9	24	i	n	1218.87	1	1000	100	0	0
166	2	11	P	P	d	736.64	1	9	24	4	56	i	n	2671.41	1	1000	100	1	0
166	2	12	N	N	f	702.43	0	3	24	7	56	c	j	969.6	0	100	100	1	0
166	2	13	P	P	d	803.24	1	4	56	8	24	i	j	2120.4	1	1000	100	1	1
166	2	14	N	N	f	686.52	0	7	24	2	56	i	j	2471.1	1	100	100	1	0
166	2	15	P	P	d	2805.64	1	7	56	4	24	c	j	652.17	1	1000	1000	1	0
166	2	16	P	P	d	1686.08	1	2	56	9	24	i	j	919.73	1	100	1000	0	0
166	2	17	P	P	d	735.49	1	3	56	9	24	i	j	751.95	1	1000	1000	0	0
166	2	18	N	N	f	1570.34	0	2	56	7	24	i	n	3722.64	1	1000	100	1	0
166	2	19	N	N	f	935.52	0	9	24	4	56	i	j	701.32	1	1000	1000	0	0
166	2	20	P	P	d	735.71	1	2	24	8	56	c	n	702.73	1	100	100	1	0
166	2	21	P	P	d	635.96	1	3	24	7	56	c	n	552.37	1	100	100	0	0
166	2	22	N	N	f	536.61	0	2	24	9	56	c	n	969.26	1	1000	100	1	0
166	2	23	N	N	f	2104.05	0	4	24	8	56	c	n	1218.94	1	1000	1000	0	0
166	2	24	P	P	d	919.94	1	2	56	9	24	i	j	1886.28	1	100	1000	1	0
166	2	25	P	P	d	902.92	1	4	24	8	56	c	n	751.97	1	100	1000	0	0
166	2	26	N	N	f	885.1	0	7	56	3	24	c	j	402.54	1	100	100	1	0
166	2	27	P	P	d	2102.51	1	9	56	4	24	c	j	2504.98	1	100	100	1	0
166	2	28	N	N	f	752.59	0	2	24	8	56	c	n	735.9	1	100	1000	1	0
166	2	29	N	N	f	752.4	0	8	56	4	24	c	j	769.26	1	100	100	0	0
166	2	30	N	N	f	1453.13	0	7	56	2	24	c	j	785.84	1	1000	100	0	0
166	2	31	N	N	f	1387.36	0	4	24	7	56	c	n	1270.32	1	100	1000	0	0
166	2	32	N	N	f	1252.65	0	8	24	3	56	i	j	1119.53	1	100	1000	0	0
166	2	33	P	P	d	2721.11	1	8	56	2	24	c	j	553.0	1	100	1000	1	0
166	2	34	N	N	f	719.0	0	8	56	4	24	c	j	553.1	1	100	1000	1	0
166	2	35	N	N	f	601.92	0	3	56	9	24	i	n	919.89	1	100	100	0	0
166	2	36	P	P	f	819.99	1	9	24	2	56	i	n	3305.16	1	100	1000	1	0
166	2	37	P	P	d	552.81	1	4	24	9	56	c	j	1403.16	0	1000	1000	0	0
166	2	38	N	N	f	852.46	0	9	56	3	24	c	j	1002.6	1	1000	100	1	1
166	2	39	P	P	d	769.08	1	2	56	8	24	i	j	886.28	1	1000	1000	1	0
166	2	40	P	P	d	885.29	1	9	24	4	56	i	n	1753.34	1	100	1000	0	0
166	2	41	N	N	f	3088.44	0	8	56	3	24	c	j	835.3	1	1000	1000	1	0
166	2	42	P	P	d	719.33	1	7	56	4	24	c	j	669.43	1	1000	100	1	0
166	2	43	P	P	d	553.08	1	9	24	3	56	i	n	635.91	1	1000	1000	0	0
166	2	44	N	N	f	785.96	0	4	56	9	24	i	n	769.28	1	1000	1000	1	0
166	2	45	P	P	d	919.32	1	8	24	3	56	i	n	502.3	1	100	100	1	0
166	2	46	P	P	d	836.63	1	8	56	4	24	c	j	635.73	1	1000	1000	0	0
166	2	47	P	P	d	618.99	1	9	56	3	24	c	j	618.59	1	100	1000	0	0
166	2	48	N	N	f	1136.38	0	8	24	2	56	i	n	852.28	0	1000	100	1	0
166	2	49	P	P	d	853.16	1	3	56	7	24	i	j	836.15	1	100	100	1	1
166	2	50	P	P	d	885.15	1	7	56	4	24	c	j	2737.87	1	100	100	0	0
166	2	51	N	N	f	786.08	0	9	24	3	56	i	n	669.53	0	100	1000	1	0
166	2	52	N	N	f	819.62	0	2	56	8	24	i	j	2170.83	0	1000	1000	0	1
166	2	53	N	N	f	2337.39	0	4	24	9	56	c	n	1836.62	1	100	100	0	1
166	2	54	P	P	d	853.07	1	3	24	8	56	c	n	3554.72	1	1000	100	1	0
166	2	55	N	N	f	635.54	0	4	24	7	56	c	j	785.02	0	1000	1000	1	0
166	2	56	P	P	d	1086.11	1	2	24	8	56	c	j	2088.06	0	100	1000	1	1
166	2	57	N	N	f	3405.3	0	8	24	4	56	i	j	1637.0	1	1000	1000	1	1
166	2	58	N	N	f	1986.97	0	2	24	9	56	c	n	1404.27	1	1000	100	0	0
166	2	59	N	N	f	802.31	0	9	56	3	24	c	j	686.15	1	100	1000	0	0
166	2	60	N	N	f	684.62	0	8	24	4	56	i	j	785.64	1	100	100	0	0
166	2	61	P	P	d	619.12	1	8	24	2	56	i	n	2487.66	1	1000	1000	1	0
166	2	62	P	P	d	651.76	1	9	24	4	56	i	n	668.88	1	100	100	0	0
166	2	63	P	P	d	635.31	1	8	24	2	56	i	n	535.88	1	1000	100	0	0
166	2	64	P	P	d	468.63	1	4	24	7	56	c	n	535.73	1	1000	100	0	0
166	2	65	P	P	d	418.58	1	2	56	7	24	i	j	718.16	1	1000	100	0	0
166	3	1	N	N	f	1370.33	0	8	56	3	24	c	j	1052.83	1	100	1000	-1	0
166	3	2	N	N	f	551.68	0	2	24	9	56	c	n	635.93	1	1000	1000	0	0
166	3	3	N	N	f	702.24	0	4	56	9	24	i	j	652.51	0	100	100	0	0
166	3	4	N	N	f	735.59	0	2	24	7	56	c	n	802.12	1	100	1000	0	1
166	3	5	P	P	d	886.07	1	3	56	7	24	i	j	635.52	1	100	100	1	0
166	3	6	N	N	f	802.75	0	2	56	9	24	i	n	1003.07	1	100	1000	1	0
166	3	7	P	P	d	1119.71	1	4	56	8	24	i	j	685.8	1	100	1000	1	0
166	3	8	P	P	d	568.78	1	2	56	9	24	i	j	1052.89	1	1000	1000	0	0
166	3	9	P	P	d	752.36	1	4	56	9	24	i	j	685.81	1	1000	100	0	0
166	3	10	P	P	d	551.78	1	2	56	8	24	i	j	602.88	1	100	1000	0	0
166	3	11	N	N	f	835.75	0	3	56	7	24	i	n	602.75	1	1000	1000	1	0
166	3	12	N	N	f	719.83	0	7	24	2	56	i	j	786.02	1	1000	100	0	0
166	3	13	P	P	d	1704.02	1	9	56	4	24	c	j	1169.5	1	1000	100	1	0
166	3	14	N	N	f	819.58	0	7	56	2	24	c	j	601.66	1	100	1000	1	0
166	3	15	P	P	d	635.63	1	9	24	3	56	i	n	1137.15	1	1000	100	1	0
166	3	16	P	P	d	935.75	1	4	24	8	56	c	n	652.84	1	100	1000	0	0
166	3	17	N	N	f	652.39	0	7	24	3	56	i	j	1436.99	1	100	100	1	0
166	3	18	N	N	f	2403.4	0	9	56	2	24	c	j	1570.36	1	1000	100	0	0
166	3	19	P	P	d	685.52	1	8	24	3	56	i	n	1253.22	1	100	1000	1	0
166	3	20	N	N	f	869.14	0	2	24	9	56	c	n	1337.31	1	1000	1000	1	0
166	3	21	P	P	d	902.19	1	3	56	8	24	i	j	684.61	1	1000	1000	1	0
166	3	22	P	P	d	568.14	1	4	56	8	24	i	j	617.71	1	100	100	0	0
166	3	23	N	N	f	786.36	0	9	24	2	56	i	j	3539.15	1	1000	1000	1	0
166	3	24	N	N	f	568.83	0	8	56	4	24	c	j	686.19	1	100	1000	0	0
166	3	25	P	P	d	735.86	1	8	56	3	24	c	j	602.56	1	100	100	1	0
166	3	26	P	P	d	535.48	1	2	24	8	56	c	n	752.94	1	1000	100	0	0
166	3	27	P	P	d	618.05	1	7	24	4	56	i	n	736.55	1	1000	100	0	0
166	3	28	N	N	f	2237.49	0	3	24	8	56	c	n	1153.71	1	1000	100	1	0
166	3	29	P	P	d	1670.03	1	4	56	9	24	i	j	1286.6	1	1000	100	1	0
166	3	30	N	N	f	502.18	0	9	56	3	24	c	j	785.57	1	1000	100	1	0
166	3	31	P	P	d	1036.27	1	4	24	7	56	c	n	852.95	1	1000	100	1	0
166	3	32	N	N	f	3755.54	0	2	56	8	24	i	n	1202.96	1	1000	100	1	0
166	3	33	P	P	d	552.33	1	8	24	3	56	i	n	2271.4	1	1000	1000	1	0
166	3	34	P	P	d	485.81	1	9	24	4	56	i	n	368.36	1	100	1000	0	0
166	3	35	N	N	f	735.87	0	3	24	8	56	c	j	920.35	0	100	100	1	0
166	3	36	P	P	d	1419.51	1	9	56	2	24	c	j	1286.86	1	100	1000	1	1
166	3	37	N	N	f	652.4	0	9	56	4	24	c	j	886.16	1	100	100	1	0
166	3	38	P	P	d	718.71	1	3	24	7	56	c	n	1787.49	1	100	100	1	0
166	3	39	P	P	d	735.48	1	8	56	4	24	c	j	669.35	1	1000	1000	0	0
166	3	40	P	P	d	686.23	1	8	24	2	56	i	n	936.11	1	100	100	0	0
166	3	41	P	P	d	1002.83	1	9	56	4	24	c	j	1303.31	1	1000	100	0	0
166	3	42	P	P	d	685.98	1	2	24	9	56	c	n	1386.74	1	100	100	0	0
166	3	43	N	N	f	702.53	0	7	56	3	24	c	j	869.42	1	1000	1000	1	0
166	3	44	N	N	f	819.16	0	4	56	8	24	i	n	1169.84	1	1000	1000	0	0
166	3	45	N	N	f	801.84	0	8	24	2	56	i	j	835.99	1	100	100	0	0
166	3	46	N	N	f	552.68	0	3	56	9	24	i	n	1018.55	1	1000	100	0	0
166	3	47	N	N	f	735.99	0	4	24	8	56	c	n	619.05	1	100	100	0	0
166	3	48	N	N	f	768.59	0	8	56	2	24	c	j	785.5	1	1000	1000	0	0
166	3	49	P	P	d	586.14	1	3	24	8	56	c	n	485.81	1	1000	1000	1	0
166	3	50	P	P	d	384.87	1	2	24	8	56	c	n	552.26	1	1000	1000	0	0
166	3	51	N	N	f	669.32	0	7	24	4	56	i	j	1152.71	1	1000	100	1	0
166	3	52	P	P	d	719.2	1	2	24	9	56	c	j	2504.98	0	100	1000	1	0
166	3	53	P	P	f	1052.03	1	8	56	3	24	c	j	1970.76	1	100	1000	0	1
166	3	54	P	P	d	501.56	1	9	24	2	56	i	n	4390.14	1	1000	1000	0	0
166	3	55	N	N	f	735.89	0	4	24	9	56	c	j	2004.74	0	100	1000	1	0
166	3	56	N	N	f	1085.74	0	7	24	2	56	i	j	1434.26	1	100	1000	0	1
166	3	57	N	N	f	352.12	0	4	24	9	56	c	n	869.9	1	1000	100	0	0
166	3	58	N	N	f	552.19	0	8	56	2	24	c	j	686.55	1	100	100	0	0
166	3	59	N	N	f	484.93	0	4	56	7	24	i	n	1019.63	1	100	1000	0	0
166	3	60	P	P	d	919.05	1	7	24	3	56	i	n	936.2	1	100	100	1	0
166	3	61	P	P	d	451.65	1	7	56	2	24	c	j	652.46	1	100	100	0	0
166	3	62	N	N	d	502.07	0	9	24	4	56	i	j	2354.32	1	100	1000	1	0
166	3	63	P	P	d	835.9	1	7	56	2	24	c	j	936.93	1	1000	1000	1	0
166	3	64	N	N	f	919.58	0	3	56	8	24	i	n	1153.38	1	100	100	1	0
166	3	65	N	N	f	819.4	0	9	24	4	56	i	j	1203.07	1	1000	1000	0	0
166	4	1	P	P	d	652.18	1	9	56	4	24	c	j	936.2	1	100	1000	-1	0
166	4	2	N	N	f	586.06	0	9	56	2	24	c	j	935.86	1	1000	1000	1	0
166	4	3	P	P	d	768.62	1	9	56	4	24	c	j	568.95	1	100	1000	1	0
166	4	4	P	P	d	1069.53	1	9	56	3	24	c	j	452.17	1	100	1000	0	0
166	4	5	P	P	d	652.36	1	9	24	4	56	i	n	1670.45	1	100	1000	0	0
166	4	6	N	N	f	851.95	0	8	56	3	24	c	j	751.17	1	100	100	1	0
166	4	7	P	P	d	1119.19	1	8	24	2	56	i	n	886.05	1	1000	1000	1	0
166	4	8	P	P	d	602.31	1	8	24	3	56	i	n	602.41	1	1000	1000	0	0
166	4	9	N	N	f	853.5	0	9	24	2	56	i	j	702.82	1	100	100	1	0
166	4	10	P	P	d	652.42	1	3	24	9	56	c	n	1052.95	1	1000	100	1	0
166	4	11	P	P	d	686.01	1	2	24	7	56	c	n	686.14	1	1000	100	0	0
166	4	12	N	N	f	1168.96	0	3	24	8	56	c	n	936.29	1	1000	1000	1	0
166	4	13	P	P	d	568.58	1	7	24	4	56	i	n	1136.57	1	1000	100	1	0
166	4	14	P	P	d	969.49	1	2	56	9	24	i	j	1803.14	1	100	100	0	0
166	4	15	N	N	f	1470.46	0	7	56	4	24	c	j	1052.81	1	1000	100	1	0
166	4	16	N	N	f	1052.68	0	3	24	8	56	c	n	1069.66	1	1000	1000	0	0
166	4	17	N	N	f	769.18	0	2	24	9	56	c	n	1069.76	1	100	100	0	0
166	4	18	P	P	d	718.9	1	8	56	3	24	c	j	701.45	1	100	100	1	0
166	4	19	N	N	f	869.49	0	4	56	7	24	i	j	2137.48	0	100	100	1	0
166	4	20	N	N	f	1068.92	0	3	24	9	56	c	n	868.84	1	100	1000	0	1
166	4	21	P	P	d	802.0	1	8	56	4	24	c	j	1302.14	1	1000	1000	1	0
166	4	22	P	P	d	902.33	1	3	24	9	56	c	j	284.93	0	1000	1000	0	0
166	4	23	P	P	d	1085.27	1	7	56	4	24	c	j	719.53	1	100	100	0	1
166	4	24	P	P	d	886.04	1	9	24	2	56	i	n	919.65	1	100	100	0	0
166	4	25	N	N	f	2471.03	0	9	56	3	24	c	j	736.5	1	100	1000	1	0
166	4	26	P	P	d	718.76	1	2	24	7	56	c	n	820.07	1	1000	1000	1	0
166	4	27	N	N	f	1186.79	0	3	24	7	56	c	n	1070.01	1	100	1000	1	0
166	4	28	P	P	d	918.79	1	2	56	8	24	i	j	2755.17	1	100	1000	1	0
166	4	29	P	P	d	1636.11	1	4	24	8	56	c	n	535.17	1	100	1000	0	0
166	4	30	N	N	f	651.46	0	2	56	8	24	i	n	936.24	1	1000	100	1	0
166	4	31	P	P	d	1136.46	1	7	24	4	56	i	n	2204.05	1	100	100	1	0
166	4	32	P	P	d	2821.47	1	8	56	3	24	c	j	1785.91	1	1000	100	0	0
166	4	33	N	N	f	768.93	0	8	24	4	56	i	j	719.46	1	1000	100	1	0
166	4	34	N	N	f	684.94	0	2	56	9	24	i	n	1986.48	1	1000	100	0	0
166	4	35	P	P	d	2688.1	1	8	56	4	24	c	j	936.42	1	1000	100	1	0
166	4	36	P	P	d	401.92	1	2	56	8	24	i	n	3489.6	0	1000	100	0	0
166	4	37	N	N	f	1169.11	0	4	24	7	56	c	n	1403.38	1	100	100	1	1
166	4	38	N	N	f	619.02	0	8	56	3	24	c	j	802.64	1	100	100	0	0
166	4	39	N	N	f	518.74	0	9	24	2	56	i	j	952.01	1	100	100	0	0
166	4	40	P	P	d	768.99	1	3	24	7	56	c	n	518.1	1	100	100	1	0
166	4	41	N	N	f	719.24	0	4	24	8	56	c	n	1036.35	1	1000	100	1	0
166	4	42	N	N	f	802.03	0	8	56	2	24	c	j	1119.32	1	100	1000	0	0
166	4	43	N	N	f	685.45	0	7	24	4	56	i	j	1587.56	1	1000	100	0	0
166	4	44	P	P	d	768.58	1	2	24	9	56	c	n	635.93	1	100	1000	1	0
166	4	45	N	N	f	718.91	0	8	24	4	56	i	j	618.69	1	1000	1000	1	0
166	4	46	N	N	f	969.23	0	9	24	2	56	i	j	936.31	1	1000	1000	0	0
166	4	47	N	N	f	1837.82	0	4	56	7	24	i	n	2053.86	1	100	100	0	0
166	4	48	N	N	f	1886.88	0	3	56	7	24	i	n	1137.02	1	100	1000	0	0
166	4	49	P	P	f	736.89	1	2	56	8	24	i	n	1687.2	0	1000	100	1	0
166	4	50	P	P	d	1153.4	1	3	56	8	24	i	j	2371.65	1	1000	1000	0	1
166	4	51	P	P	d	1268.86	1	7	56	4	24	c	j	786.05	1	1000	1000	0	0
166	4	52	N	N	f	984.91	0	3	56	8	24	i	n	869.48	1	1000	1000	1	0
166	4	53	P	P	d	853.47	1	4	56	7	24	i	j	1637.18	1	1000	1000	1	0
166	4	54	P	P	d	752.87	1	7	24	2	56	i	n	952.89	1	1000	100	0	0
166	4	55	P	P	d	1053.08	1	4	56	9	24	i	j	1053.15	1	100	1000	0	0
166	4	56	N	N	f	819.02	0	9	24	3	56	i	j	1720.71	1	100	1000	1	0
166	4	57	N	N	f	635.77	0	4	24	9	56	c	n	936.36	1	1000	100	0	0
166	4	58	N	N	f	919.48	0	7	24	3	56	i	j	1019.41	1	100	1000	0	0
166	4	59	P	P	f	936.05	1	4	56	9	24	i	n	2387.75	0	100	100	1	0
166	4	60	P	P	d	902.31	1	2	24	9	56	c	n	868.97	1	100	100	0	1
166	4	61	N	N	f	768.58	0	4	56	8	24	i	j	285.12	0	100	1000	1	0
166	4	62	N	N	f	735.51	0	7	56	3	24	c	j	3606.42	1	1000	1000	0	1
166	4	63	N	N	f	635.88	0	9	56	4	24	c	j	752.29	1	1000	100	0	0
166	4	64	N	N	f	568.67	0	3	56	9	24	i	n	852.7	1	1000	1000	0	0
166	4	65	P	P	d	769.5	1	7	24	4	56	i	n	618.91	1	100	1000	1	0
166	5	1	N	N	f	968.91	0	7	24	4	56	i	j	1236.69	1	100	1000	-1	0
166	5	2	P	P	d	835.3	1	8	56	2	24	c	n	1186.47	0	100	1000	1	0
166	5	3	P	P	d	1470.64	1	8	24	3	56	i	n	685.63	1	1000	1000	0	1
166	5	4	P	P	d	969.38	1	2	56	7	24	i	j	785.46	1	1000	100	0	0
166	5	5	N	N	f	602.7	0	9	24	3	56	i	j	752.78	1	1000	1000	1	0
166	5	6	N	N	f	869.21	0	4	56	7	24	i	n	936.33	1	100	100	0	0
166	5	7	P	P	d	802.07	1	3	24	9	56	c	n	1136.33	1	100	1000	1	0
166	5	8	P	P	d	919.55	1	4	24	8	56	c	n	585.65	1	100	100	0	0
166	5	9	P	P	d	485.02	1	9	56	2	24	c	j	535.23	1	100	1000	0	0
166	5	10	P	P	d	619.07	1	3	56	8	24	i	j	585.53	1	1000	1000	0	0
166	5	11	N	N	f	635.96	0	8	56	4	24	c	j	685.76	1	100	100	1	0
166	5	12	P	P	d	650.95	1	9	24	3	56	i	n	735.49	1	100	100	1	0
166	5	13	P	P	d	720.01	1	2	24	9	56	c	n	886.13	1	100	1000	0	0
166	5	14	N	N	f	968.73	0	3	56	8	24	i	n	1920.91	1	100	1000	1	0
166	5	15	N	N	f	686.62	0	4	56	7	24	i	n	968.15	1	1000	100	0	0
166	5	16	P	P	d	702.42	1	8	56	3	24	c	j	552.48	1	100	100	1	0
166	5	17	P	P	d	485.75	1	9	56	4	24	c	j	602.73	1	1000	1000	0	0
166	5	18	P	P	d	652.63	1	8	24	3	56	i	n	1920.58	1	1000	100	0	0
166	5	19	N	N	f	669.1	0	2	24	9	56	c	j	85.47	0	1000	1000	1	0
166	5	20	P	P	d	852.49	1	3	56	9	24	i	j	636.24	1	1000	100	1	1
166	5	21	N	N	f	802.19	0	8	56	4	24	c	j	585.75	1	1000	1000	1	0
166	5	22	N	N	f	536.74	0	8	24	3	56	i	j	1019.06	1	1000	1000	0	0
166	5	23	P	P	d	1436.13	1	8	56	4	24	c	j	819.31	1	1000	1000	1	0
166	5	24	N	N	f	618.84	0	7	24	3	56	i	j	1318.61	1	1000	100	1	0
166	5	25	N	N	f	1536.79	0	7	56	4	24	c	j	585.2	1	100	1000	0	0
166	5	26	N	N	f	851.66	0	8	24	3	56	i	j	702.38	1	1000	100	0	0
166	5	27	N	N	f	602.48	0	2	56	7	24	i	n	669.26	1	100	1000	0	0
166	5	28	N	N	f	652.09	0	3	24	7	56	c	n	718.89	1	100	1000	0	0
166	5	29	P	P	d	685.61	1	2	56	9	24	i	j	668.88	1	1000	1000	1	0
166	5	30	P	P	d	636.37	1	4	24	8	56	c	n	902.58	1	1000	100	0	0
166	5	31	P	P	d	601.64	1	7	24	3	56	i	n	1152.48	1	100	1000	0	0
166	5	32	N	N	f	1185.86	0	2	56	8	24	i	j	1270.74	0	100	100	1	0
166	5	33	N	N	f	1569.56	0	9	56	4	24	c	j	1002.46	1	100	100	0	1
166	5	34	P	P	d	569.8	1	3	56	8	24	i	n	4423.63	0	100	1000	1	0
166	5	35	P	P	d	668.29	1	7	56	4	24	c	j	836.24	1	100	100	0	1
166	5	36	N	N	f	618.78	0	2	24	7	56	c	n	936.02	1	1000	100	1	0
166	5	37	P	P	d	719.31	1	4	24	9	56	c	n	1018.71	1	100	100	1	0
166	5	38	N	N	f	952.82	0	8	24	2	56	i	j	1570.3	1	100	1000	1	0
166	5	39	N	N	f	819.74	0	8	56	4	24	c	j	534.88	1	1000	100	0	0
166	5	40	N	N	f	585.6	0	7	24	2	56	i	j	752.27	1	100	100	0	0
166	5	41	P	P	d	585.98	1	3	24	9	56	c	n	702.48	1	1000	100	1	0
166	5	42	P	P	d	587.02	1	4	56	7	24	i	j	1836.92	1	100	100	0	0
166	5	43	P	P	d	518.55	1	2	56	7	24	i	j	268.68	1	100	1000	0	0
166	5	44	N	N	f	819.19	0	3	56	8	24	i	n	1236.13	1	1000	100	1	0
166	5	45	P	P	d	785.71	1	8	24	2	56	i	n	1102.78	1	1000	1000	1	0
166	5	46	P	P	d	602.13	1	7	24	4	56	i	n	702.77	1	100	100	0	0
166	5	47	P	P	d	435.57	1	7	56	3	24	c	j	568.14	1	1000	100	0	0
166	5	48	N	N	f	668.92	0	2	56	9	24	i	n	819.29	1	1000	1000	1	0
166	5	49	N	N	f	769.15	0	9	56	4	24	c	j	1937.04	1	1000	1000	0	0
166	5	50	N	N	f	551.91	0	9	24	2	56	i	j	1019.45	1	100	1000	0	0
166	5	51	P	P	d	1103.03	1	7	24	4	56	i	n	819.4	1	100	1000	1	0
166	5	52	N	N	f	719.0	0	3	24	8	56	c	n	1721.07	1	100	100	1	0
166	5	53	P	P	d	919.48	1	9	24	4	56	i	n	753.09	1	1000	100	1	0
166	5	54	P	P	d	569.82	1	2	24	9	56	c	n	1820.72	1	1000	1000	0	0
166	5	55	N	N	f	685.12	0	8	24	4	56	i	j	818.58	1	100	100	1	0
166	5	56	P	P	d	702.23	1	3	56	8	24	i	j	2087.87	1	100	100	1	0
166	5	57	N	N	f	585.0	0	8	56	4	24	c	j	736.67	1	1000	100	1	0
166	5	58	N	N	f	1819.9	0	2	56	7	24	i	n	819.75	1	1000	1000	0	0
166	5	59	P	P	d	753.04	1	9	56	3	24	c	j	652.68	1	1000	100	1	0
166	5	60	N	N	f	736.7	0	8	56	4	24	c	j	736.21	1	100	1000	1	0
166	5	61	P	P	d	736.41	1	2	24	8	56	c	n	718.9	1	1000	1000	1	0
166	5	62	N	N	f	652.74	0	4	24	9	56	c	n	1970.83	1	100	1000	1	0
166	5	63	N	N	f	785.91	0	2	24	9	56	c	n	853.4	1	1000	1000	0	0
166	5	64	N	N	f	1069.11	0	3	24	9	56	c	n	920.03	1	100	100	0	0
166	5	65	N	N	f	719.2	0	2	24	8	56	c	n	819.43	1	1000	100	0	0
166	6	1	P	P	d	2305.02	1	7	24	2	56	i	n	952.92	1	100	100	-1	0
166	6	2	P	P	d	470.14	1	3	56	7	24	i	j	602.05	1	1000	1000	0	0
166	6	3	N	N	f	736.76	0	2	24	7	56	c	n	1086.27	1	100	1000	1	0
166	6	4	P	P	d	669.08	1	8	24	4	56	i	n	1370.19	1	100	1000	1	0
166	6	5	P	P	d	618.34	1	9	56	2	24	c	j	569.04	1	100	1000	0	0
166	6	6	N	N	f	869.14	0	4	56	9	24	i	n	852.44	1	100	100	1	0
166	6	7	P	P	d	1103.73	1	3	56	8	24	i	j	919.7	1	100	1000	1	0
166	6	8	P	P	d	568.9	1	8	24	2	56	i	n	819.08	1	1000	1000	0	0
166	6	9	P	P	d	935.97	1	4	56	8	24	i	j	669.1	1	100	100	0	0
166	6	10	N	N	f	385.07	0	9	56	2	24	c	j	702.14	1	1000	100	1	0
166	6	11	P	P	f	434.63	1	4	24	7	56	c	n	1052.62	1	100	1000	1	0
166	6	12	N	N	f	2471.12	0	7	56	3	24	c	j	2287.99	1	1000	1000	1	0
166	6	13	N	N	f	1070.05	0	9	56	2	24	c	j	670.18	1	1000	1000	0	0
166	6	14	N	N	f	902.77	0	3	24	9	56	c	n	506.56	1	100	1000	0	0
166	6	15	N	N	f	703.58	0	9	24	2	56	i	j	918.97	1	100	1000	0	0
166	6	16	N	N	f	569.16	0	8	24	4	56	i	j	803.02	1	100	100	0	0
166	6	17	N	N	f	803.12	0	2	56	9	24	i	n	1335.69	1	1000	1000	0	0
166	6	18	P	P	d	719.04	1	9	56	3	24	c	j	634.62	1	100	1000	1	0
166	6	19	N	N	f	602.89	0	4	56	8	24	i	n	702.73	1	1000	100	1	0
166	6	20	N	N	f	585.84	0	9	56	2	24	c	j	669.27	1	1000	100	0	0
166	6	21	P	P	f	702.28	1	7	56	3	24	c	j	2104.51	1	1000	100	1	0
166	6	22	P	P	d	752.51	1	2	24	7	56	c	n	686.08	1	1000	1000	0	0
166	6	23	N	N	f	835.7	0	4	56	9	24	i	n	819.57	1	1000	1000	1	0
166	6	24	P	P	d	719.92	1	3	56	9	24	i	j	653.05	1	100	100	1	0
166	6	25	P	P	d	469.12	1	8	24	2	56	i	n	703.66	1	100	100	0	0
166	6	26	N	N	f	668.92	0	7	56	3	24	c	j	753.46	1	100	1000	1	0
166	6	27	P	P	d	618.48	1	2	24	9	56	c	n	985.27	1	1000	1000	1	0
166	6	28	N	N	f	635.31	0	7	24	4	56	i	j	1403.78	1	100	1000	1	0
166	6	29	N	N	f	886.15	0	9	24	3	56	i	j	1069.15	1	1000	1000	0	0
166	6	30	N	N	f	1153.08	0	2	24	8	56	c	n	936.13	1	100	100	0	0
166	6	31	P	P	d	2620.91	1	8	56	4	24	c	j	1269.19	1	1000	1000	1	0
166	6	32	P	P	d	819.44	1	2	24	9	56	c	n	535.23	1	100	100	0	0
166	6	33	P	P	d	368.83	1	4	56	9	24	i	j	670.01	1	1000	100	0	0
166	6	34	P	P	d	501.78	1	8	24	2	56	i	n	1002.73	1	100	1000	0	0
166	6	35	N	N	f	702.22	0	7	56	3	24	c	j	619.52	1	100	100	1	0
166	6	36	N	N	f	402.32	0	2	24	7	56	c	n	669.45	1	1000	100	0	0
166	6	37	P	P	d	701.73	1	7	56	4	24	c	j	619.01	1	100	100	1	0
166	6	38	P	P	d	719.43	1	8	56	3	24	c	j	601.18	1	1000	100	0	0
166	6	39	P	P	d	468.48	1	8	56	4	24	c	j	702.73	1	1000	1000	0	0
166	6	40	P	P	d	501.96	1	2	56	9	24	i	n	2519.57	0	100	1000	0	0
166	6	41	N	N	f	669.32	0	4	24	7	56	c	n	1537.3	1	100	100	1	1
166	6	42	P	P	d	719.28	1	2	24	8	56	c	n	703.16	1	1000	100	1	0
166	6	43	N	N	f	1135.53	0	9	24	3	56	i	j	1820.65	1	1000	1000	1	0
166	6	44	N	N	f	852.66	0	8	56	4	24	c	j	536.3	1	100	1000	0	0
166	6	45	N	N	d	635.85	0	2	56	8	24	i	n	1587.67	1	100	1000	0	0
166	6	46	N	N	d	1434.87	0	4	56	7	24	i	n	2904.93	1	1000	100	0	0
166	6	47	N	N	f	836.42	0	3	24	9	56	c	n	752.89	1	1000	1000	0	0
166	6	48	N	N	d	353.57	0	9	56	4	24	c	j	1320.46	1	100	100	0	0
166	6	49	P	P	f	669.55	1	9	24	2	56	i	n	1804.11	1	1000	100	1	0
166	6	50	N	N	f	737.05	0	3	56	7	24	i	n	1170.12	1	100	1000	1	0
166	6	51	P	P	d	836.39	1	2	24	8	56	c	n	836.8	1	100	100	1	0
166	6	52	P	P	d	469.79	1	7	56	3	24	c	j	619.28	1	100	100	0	0
166	6	53	N	N	f	502.74	0	7	24	2	56	i	j	1470.63	1	1000	100	1	0
166	6	54	P	P	d	702.63	1	9	24	4	56	i	n	569.67	1	100	100	1	0
166	6	55	P	P	d	567.19	1	2	24	9	56	c	n	853.38	1	1000	100	0	0
166	6	56	P	P	d	586.17	1	7	24	4	56	i	n	502.94	1	1000	100	0	0
166	6	57	P	P	d	536.35	1	3	24	8	56	c	n	486.97	1	100	1000	0	0
166	6	58	N	N	f	719.69	0	7	24	4	56	i	j	719.77	1	100	100	1	0
166	6	59	N	N	f	769.34	0	7	24	3	56	i	j	2037.9	1	1000	100	0	0
166	6	60	P	P	d	837.88	1	2	56	8	24	i	j	2104.75	1	1000	100	1	0
166	6	61	N	N	f	1270.08	0	4	24	7	56	c	n	1370.16	1	1000	1000	1	0
166	6	62	N	N	f	752.14	0	3	56	8	24	i	n	1019.4	1	100	100	0	0
166	6	63	P	P	d	552.33	1	8	24	4	56	i	n	836.76	1	1000	1000	1	0
166	6	64	N	N	f	885.95	0	3	24	8	56	c	j	1119.52	0	1000	100	1	0
166	6	65	P	P	d	636.05	1	2	56	8	24	i	n	1920.91	0	1000	1000	1	1
