subj	block	trial	task_cue	task	choice_resp	choiceRT	choice_acc	topnum	topsize	botnum	botsize	cong	task_resp	taskRT	task_acc	RSI	CSI	altRep	E1
167	1	1	?	P	d	2205.17	NA	8	24	2	56	i	n	1554.33	1	100	1000	-1	0
167	1	2	?	P	d	2254.13	NA	7	56	4	24	c	j	569.45	1	1000	1000	0	0
167	1	3	?	P	d	402.53	NA	3	56	8	24	i	j	970.24	1	100	1000	0	0
167	1	4	?	N	f	502.57	NA	4	56	7	24	i	n	1371.08	1	100	100	0	0
167	1	5	?	N	f	817.83	NA	3	24	7	56	c	n	570.17	1	1000	1000	0	0
167	1	6	?	N	f	436.08	NA	2	56	8	24	i	n	1453.84	1	100	1000	0	0
167	1	7	?	P	d	352.21	NA	9	24	4	56	i	n	586.15	1	1000	1000	0	0
167	1	8	?	P	d	2505.19	NA	3	56	8	24	i	j	736.92	1	1000	100	0	0
167	1	9	?	P	d	1603.54	NA	9	24	2	56	i	n	651.71	1	1000	1000	0	0
167	1	10	?	N	f	400.67	NA	3	24	7	56	c	n	887.16	1	1000	100	0	0
167	1	11	?	N	f	1003.44	NA	4	24	9	56	c	n	569.96	1	1000	100	0	0
167	1	12	?	N	f	352.6	NA	9	56	2	24	c	j	886.59	1	1000	100	0	0
167	1	13	?	P	d	352.7	NA	3	56	7	24	i	j	970.14	1	1000	1000	0	0
167	1	14	?	P	d	385.83	NA	8	56	4	24	c	j	1987.81	1	100	100	0	0
167	1	15	?	P	d	652.79	NA	7	56	3	24	c	j	803.22	1	1000	100	0	0
167	1	16	?	P	d	219.23	NA	9	56	2	24	c	j	620.19	1	1000	1000	0	0
167	1	17	?	N	f	68.91	NA	3	56	7	24	i	n	903.54	1	1000	1000	0	0
167	1	18	?	N	f	503.15	NA	9	24	4	56	i	j	937.06	1	100	1000	0	0
167	1	19	?	N	f	336.38	NA	2	24	9	56	c	n	734.98	1	100	100	0	0
167	1	20	?	N	f	518.79	NA	4	24	9	56	c	n	769.88	1	100	1000	0	0
167	1	21	?	N	f	636.45	NA	7	24	3	56	i	j	1053.13	1	100	100	0	0
167	1	22	?	P	d	769.79	NA	8	56	2	24	c	j	920.54	1	100	1000	0	0
167	1	23	?	P	d	352.84	NA	3	24	9	56	c	n	635.7	1	100	1000	0	0
167	1	24	?	P	d	334.15	NA	4	24	7	56	c	n	769.89	1	100	100	0	0
167	1	25	?	P	d	302.81	NA	2	24	8	56	c	n	669.61	1	100	100	0	0
167	1	26	?	P	d	469.33	NA	7	24	4	56	i	n	1504.31	1	1000	100	0	0
167	1	27	?	P	d	352.71	NA	3	24	9	56	c	n	469.41	1	1000	1000	0	0
167	1	28	?	N	f	619.27	NA	8	24	4	56	i	j	753.2	1	100	100	0	0
167	1	29	?	N	f	318.69	NA	7	24	3	56	i	j	953.37	1	1000	100	0	0
167	1	30	?	N	f	369.06	NA	9	56	4	24	c	j	634.9	1	1000	100	0	0
167	1	31	?	N	f	636.5	NA	8	56	3	24	c	j	600.73	1	100	100	0	0
167	1	32	?	P	d	369.31	NA	7	56	2	24	c	j	602.79	1	100	1000	0	0
167	1	33	?	P	d	418.89	NA	9	24	3	56	i	n	1520.44	1	100	1000	0	0
167	1	34	?	N	f	736.26	NA	8	56	4	24	c	j	1287.38	1	1000	100	0	0
167	1	35	?	P	d	369.04	NA	7	24	2	56	i	n	1286.76	1	1000	100	0	0
167	1	36	?	N	f	418.64	NA	4	56	7	24	i	n	1119.75	1	1000	100	0	0
167	1	37	?	N	f	686.56	NA	9	24	2	56	i	j	637.08	1	1000	1000	0	0
167	1	38	?	P	d	252.33	NA	4	56	9	24	i	j	1320.86	1	1000	1000	0	0
167	1	39	?	P	d	319.35	NA	3	56	8	24	i	j	669.78	1	100	100	0	0
167	1	40	?	P	d	269.27	NA	9	24	2	56	i	n	1303.73	1	100	1000	0	0
167	1	41	?	P	d	252.34	NA	4	24	9	56	c	n	2905.6	1	100	1000	0	0
167	1	42	?	N	f	369.25	NA	9	24	3	56	i	j	1537.56	1	100	100	0	0
167	1	43	?	N	f	2721.81	NA	2	56	9	24	i	n	1103.45	1	1000	100	0	0
167	1	44	?	N	f	402.04	NA	4	56	7	24	i	n	936.48	1	100	100	0	0
167	1	45	?	N	f	300.72	NA	2	56	8	24	i	n	703.25	1	100	1000	0	0
167	1	46	?	N	f	302.67	NA	4	56	7	24	i	n	919.94	1	100	100	0	0
167	1	47	?	N	f	819.95	NA	8	56	2	24	c	j	1086.48	1	1000	1000	0	0
167	1	48	?	N	f	285.87	NA	9	56	3	24	c	j	636.66	1	100	1000	0	0
167	1	49	?	N	f	319.06	NA	9	56	2	24	c	j	584.53	1	100	1000	0	0
167	1	50	?	N	f	719.82	NA	4	24	9	56	c	n	1537.68	1	1000	1000	0	0
167	1	51	?	P	d	1618.62	NA	9	56	2	24	c	j	586.99	1	1000	1000	0	0
167	1	52	?	P	d	102.16	NA	9	24	3	56	i	j	734.88	0	1000	1000	0	0
167	1	53	?	P	d	669.53	NA	4	56	8	24	i	j	1320.9	1	1000	100	0	1
167	1	54	?	P	d	335.89	NA	3	24	7	56	c	n	586.38	1	100	1000	0	0
167	1	55	?	P	d	335.91	NA	7	24	2	56	i	n	1304.53	1	100	100	0	0
167	1	56	?	P	d	302.57	NA	4	56	9	24	i	j	717.77	1	100	1000	0	0
167	1	57	?	N	f	285.73	NA	2	24	7	56	c	n	919.98	1	100	100	0	0
167	1	58	?	N	f	869.7	NA	7	24	3	56	i	j	953.54	1	1000	1000	0	0
167	1	59	?	N	f	319.5	NA	7	24	2	56	i	j	920.31	1	100	1000	0	0
167	1	60	?	P	d	185.6	NA	8	56	4	24	c	j	1752.43	1	100	100	0	0
167	1	61	?	N	f	369.14	NA	9	56	3	24	c	j	1220.75	1	100	100	0	0
167	1	62	?	P	d	469.9	NA	2	56	9	24	i	j	786.41	1	1000	100	0	0
167	1	63	?	P	d	1552.01	NA	4	24	9	56	c	n	2421.9	1	1000	100	0	0
167	1	64	?	N	f	2271.72	NA	2	24	9	56	c	n	569.81	1	1000	100	0	0
167	1	65	?	N	f	2104.47	NA	4	24	7	56	c	n	1587.57	1	1000	1000	0	0
167	2	1	?	P	d	920.19	NA	3	24	7	56	c	n	1821.66	1	100	100	-1	0
167	2	2	?	P	d	1670.63	NA	4	56	9	24	i	j	986.62	1	1000	100	0	0
167	2	3	?	P	d	736.5	NA	3	24	8	56	c	n	1336.63	1	1000	100	0	0
167	2	4	?	N	f	452.68	NA	2	24	7	56	c	n	819.66	1	100	100	0	0
167	2	5	?	N	f	268.83	NA	3	56	7	24	i	n	736.98	1	100	1000	0	0
167	2	6	?	N	f	269.44	NA	9	56	4	24	c	j	603.35	1	100	1000	0	0
167	2	7	?	N	f	318.8	NA	3	56	7	24	i	n	936.73	1	100	100	0	0
167	2	8	?	N	f	1303.22	NA	2	24	7	56	c	n	536.48	1	1000	1000	0	0
167	2	9	?	P	d	2788.91	NA	8	56	3	24	c	j	552.67	1	1000	1000	0	0
167	2	10	?	P	d	319.01	NA	9	56	4	24	c	j	570.39	1	1000	1000	0	0
167	2	11	?	P	d	302.47	NA	7	24	3	56	i	n	535.42	1	100	100	0	0
167	2	12	?	P	d	302.3	NA	7	56	4	24	c	j	620.29	1	100	1000	0	0
167	2	13	?	P	d	819.71	NA	8	24	3	56	i	n	1236.92	1	1000	1000	0	0
167	2	14	?	N	f	152.61	NA	9	56	4	24	c	j	485.74	1	1000	100	0	0
167	2	15	?	N	f	368.49	NA	9	56	3	24	c	j	537.12	1	1000	1000	0	0
167	2	16	?	N	f	401.85	NA	9	24	4	56	i	j	1154.01	1	100	1000	0	0
167	2	17	?	N	f	352.48	NA	9	24	2	56	i	j	1070.55	1	100	1000	0	0
167	2	18	?	N	f	368.98	NA	9	24	4	56	i	j	685.77	1	100	100	0	0
167	2	19	?	N	f	419.17	NA	2	56	9	24	i	n	569.83	1	1000	1000	0	0
167	2	20	?	P	d	369.53	NA	3	24	7	56	c	n	569.77	1	100	1000	0	0
167	2	21	?	P	d	602.94	NA	9	56	4	24	c	j	620.04	1	1000	100	0	0
167	2	22	?	P	d	335.89	NA	3	24	9	56	c	n	652.96	1	1000	100	0	0
167	2	23	?	P	d	402.8	NA	4	24	8	56	c	n	569.61	1	100	100	0	0
167	2	24	?	P	d	2.44	NA	2	24	8	56	c	n	719.81	1	1000	1000	0	0
167	2	25	?	P	d	486.45	NA	3	24	8	56	c	n	503.29	1	100	100	0	0
167	2	26	?	P	d	336.12	NA	4	24	9	56	c	n	453.13	1	100	100	0	0
167	2	27	?	P	d	435.91	NA	2	24	9	56	c	n	419.91	1	1000	100	0	0
167	2	28	?	P	d	419.41	NA	3	24	8	56	c	n	804.14	1	100	1000	0	0
167	2	29	?	N	f	1420.52	NA	4	24	9	56	c	n	736.16	1	1000	100	0	0
167	2	30	?	N	f	352.54	NA	7	24	3	56	i	j	603.62	1	1000	1000	0	0
167	2	31	?	N	f	686.55	NA	4	56	8	24	i	n	636.17	1	1000	100	0	0
167	2	32	?	N	f	436.17	NA	9	56	2	24	c	j	586.64	1	1000	100	0	0
167	2	33	?	N	f	570.33	NA	8	56	3	24	c	j	552.69	1	1000	1000	0	0
167	2	34	?	N	f	369.18	NA	4	56	9	24	i	n	936.3	1	100	100	0	0
167	2	35	?	N	f	302.87	NA	7	24	2	56	i	j	669.44	1	1000	100	0	0
167	2	36	?	N	f	769.82	NA	7	24	4	56	i	j	719.91	1	1000	1000	0	0
167	2	37	?	N	f	403.24	NA	7	56	2	24	c	j	569.73	1	100	100	0	0
167	2	38	?	P	d	269.2	NA	3	56	8	24	i	j	1253.65	1	1000	1000	0	0
167	2	39	?	P	d	402.5	NA	9	56	2	24	c	j	602.25	1	100	1000	0	0
167	2	40	?	P	d	402.41	NA	9	24	3	56	i	n	419.96	1	100	1000	0	0
167	2	41	?	N	f	436.51	NA	8	24	2	56	i	j	685.97	1	1000	100	0	0
167	2	42	?	N	f	619.78	NA	4	56	9	24	i	n	1320.5	1	100	1000	0	0
167	2	43	?	P	d	319.4	NA	8	24	3	56	i	n	1137.15	1	100	100	0	0
167	2	44	?	N	f	569.9	NA	9	56	2	24	c	j	552.43	1	1000	100	0	0
167	2	45	?	P	d	469.74	NA	4	24	8	56	c	n	486.28	1	1000	1000	0	0
167	2	46	?	N	f	536.41	NA	9	56	3	24	c	j	1002.64	1	100	100	0	0
167	2	47	?	P	d	502.86	NA	8	24	2	56	i	n	1203.37	1	1000	1000	0	0
167	2	48	?	N	f	452.79	NA	8	24	4	56	i	j	586.76	1	100	1000	0	0
167	2	49	?	N	f	419.34	NA	2	24	7	56	c	n	686.83	1	100	1000	0	0
167	2	50	?	N	f	252.6	NA	8	56	3	24	c	j	720.38	1	100	1000	0	0
167	2	51	?	N	f	552.73	NA	2	24	8	56	c	n	1386.79	1	1000	1000	0	0
167	2	52	?	P	d	786.7	NA	8	24	3	56	i	n	870.83	1	1000	100	0	0
167	2	53	?	P	d	719.24	NA	4	56	7	24	i	j	901.39	1	100	100	0	0
167	2	54	?	P	d	418.94	NA	2	24	7	56	c	n	553.19	1	100	1000	0	0
167	2	55	?	P	d	352.84	NA	7	24	3	56	i	n	986.39	1	100	1000	0	0
167	2	56	?	P	d	385.88	NA	7	24	2	56	i	n	1003.76	1	1000	100	0	0
167	2	57	?	N	f	168.72	NA	7	24	3	56	i	j	536.58	1	1000	1000	0	0
167	2	58	?	N	f	436.24	NA	8	24	2	56	i	j	767.44	1	100	100	0	0
167	2	59	?	N	f	585.47	NA	9	24	4	56	i	j	719.79	1	1000	100	0	0
167	2	60	?	N	f	953.15	NA	3	56	7	24	i	n	1804.56	1	1000	100	0	0
167	2	61	?	N	f	334.55	NA	7	56	2	24	c	j	585.97	1	100	100	0	0
167	2	62	?	N	f	302.79	NA	8	24	4	56	i	j	734.95	1	100	100	0	0
167	2	63	?	N	f	319.33	NA	8	56	3	24	c	j	653.04	1	100	100	0	0
167	2	64	?	N	f	536.0	NA	4	56	9	24	i	n	619.89	1	1000	1000	0	0
167	2	65	?	P	d	302.72	NA	2	56	8	24	i	j	903.51	1	100	1000	0	0
167	3	1	?	P	d	753.64	NA	4	24	9	56	c	n	769.48	1	100	100	-1	0
167	3	2	?	P	d	669.94	NA	3	56	8	24	i	j	1570.86	1	1000	1000	0	0
167	3	3	?	P	d	352.54	NA	2	56	7	24	i	j	701.13	1	100	1000	0	0
167	3	4	?	P	d	400.59	NA	4	24	9	56	c	n	536.68	1	1000	1000	0	0
167	3	5	?	P	d	552.88	NA	2	24	9	56	c	n	536.36	1	1000	100	0	0
167	3	6	?	P	d	335.95	NA	3	24	8	56	c	n	536.78	1	100	100	0	0
167	3	7	?	P	d	152.49	NA	8	56	2	24	c	j	570.46	1	1000	100	0	0
167	3	8	?	P	d	101.62	NA	8	56	3	24	c	j	619.79	1	1000	100	0	0
167	3	9	?	N	f	235.85	NA	9	56	2	24	c	j	834.68	1	1000	1000	0	0
167	3	10	?	N	f	1320.71	NA	4	56	8	24	i	n	836.92	1	100	1000	0	0
167	3	11	?	N	f	336.02	NA	9	56	2	24	c	j	502.88	1	1000	1000	0	0
167	3	12	?	N	f	302.51	NA	7	56	3	24	c	j	586.13	1	100	100	0	0
167	3	13	?	N	f	252.46	NA	8	24	4	56	i	j	985.13	1	100	100	0	0
167	3	14	?	N	f	352.61	NA	2	24	9	56	c	n	669.67	1	1000	1000	0	0
167	3	15	?	P	d	669.62	NA	7	56	4	24	c	j	769.46	1	1000	100	0	0
167	3	16	?	P	d	335.92	NA	3	56	9	24	i	n	619.59	0	100	100	0	0
167	3	17	?	P	d	685.84	NA	4	56	7	24	i	j	786.42	1	100	1000	0	1
167	3	18	?	P	d	268.81	NA	3	24	7	56	c	n	653.66	1	100	100	0	0
167	3	19	?	P	d	268.88	NA	9	56	2	24	c	j	686.98	1	100	1000	0	0
167	3	20	?	P	d	486.3	NA	9	56	4	24	c	j	569.92	1	1000	1000	0	0
167	3	21	?	N	f	536.13	NA	2	56	7	24	i	j	686.2	0	1000	100	0	0
167	3	22	?	N	f	586.2	NA	3	24	9	56	c	n	819.52	1	100	1000	0	1
167	3	23	?	N	f	286.1	NA	4	56	9	24	i	j	753.32	0	100	1000	0	0
167	3	24	?	N	f	602.98	NA	8	24	2	56	i	j	719.53	1	100	100	0	1
167	3	25	?	N	f	285.51	NA	8	56	3	24	c	j	903.9	1	100	100	0	0
167	3	26	?	P	d	2872.65	NA	4	56	8	24	i	j	719.73	1	1000	100	0	0
167	3	27	?	P	d	402.93	NA	7	56	2	24	c	j	553.65	1	100	1000	0	0
167	3	28	?	P	d	953.5	NA	7	24	3	56	i	j	686.79	0	1000	100	0	0
167	3	29	?	P	d	1537.26	NA	8	24	4	56	i	n	519.99	1	1000	1000	0	1
167	3	30	?	P	d	385.89	NA	2	24	8	56	c	n	586.53	1	100	100	0	0
167	3	31	?	P	d	436.04	NA	7	56	4	24	c	j	620.42	1	1000	100	0	0
167	3	32	?	P	d	469.42	NA	8	24	3	56	i	n	536.9	1	100	1000	0	0
167	3	33	?	P	d	452.68	NA	2	56	9	24	i	j	803.93	1	1000	100	0	0
167	3	34	?	N	f	3656.44	NA	3	56	7	24	i	n	1103.78	1	1000	1000	0	0
167	3	35	?	N	f	719.54	NA	4	24	8	56	c	n	1370.72	1	100	1000	0	0
167	3	36	?	N	f	1870.9	NA	8	56	3	24	c	j	503.28	1	1000	1000	0	0
167	3	37	?	N	f	169.57	NA	7	24	4	56	i	j	652.91	1	1000	1000	0	0
167	3	38	?	N	f	218.8	NA	3	24	9	56	c	n	620.27	1	100	100	0	0
167	3	39	?	N	f	486.6	NA	7	24	2	56	i	j	919.99	1	1000	1000	0	0
167	3	40	?	N	f	286.14	NA	8	24	3	56	i	j	586.37	1	100	100	0	0
167	3	41	?	N	f	719.54	NA	9	24	2	56	i	j	686.26	1	1000	1000	0	0
167	3	42	?	N	f	419.05	NA	8	56	3	24	c	j	570.32	1	100	100	0	0
167	3	43	?	N	f	369.44	NA	2	56	8	24	i	n	569.92	1	1000	100	0	0
167	3	44	?	N	f	419.3	NA	4	56	7	24	i	n	702.89	1	100	100	0	0
167	3	45	?	N	f	335.76	NA	3	56	7	24	i	n	603.34	1	100	100	0	0
167	3	46	?	N	f	386.05	NA	2	24	7	56	c	n	636.83	1	100	1000	0	0
167	3	47	?	N	f	385.92	NA	8	56	4	24	c	j	603.5	1	100	100	0	0
167	3	48	?	N	f	335.84	NA	3	56	8	24	i	n	553.33	1	100	1000	0	0
167	3	49	?	P	d	33.51	NA	4	56	9	24	i	j	986.95	1	1000	100	0	0
167	3	50	?	P	d	68.99	NA	3	24	8	56	c	n	836.92	1	1000	1000	0	0
167	3	51	?	P	d	285.93	NA	7	24	2	56	i	j	987.45	0	100	100	0	0
167	3	52	?	P	d	419.41	NA	8	56	3	24	c	j	670.12	1	100	1000	0	1
167	3	53	?	P	d	1570.06	NA	9	24	4	56	i	n	670.47	1	1000	1000	0	0
167	3	54	?	P	d	502.83	NA	2	24	7	56	c	n	1854.69	1	1000	100	0	0
167	3	55	?	P	d	402.59	NA	4	56	7	24	i	j	436.33	1	100	1000	0	0
167	3	56	?	P	d	2587.8	NA	3	24	7	56	c	n	653.57	1	1000	1000	0	0
167	3	57	?	P	d	986.92	NA	8	24	4	56	i	n	486.78	1	1000	1000	0	0
167	3	58	?	P	d	235.79	NA	8	24	3	56	i	n	603.11	1	100	100	0	0
167	3	59	?	P	d	419.25	NA	2	24	9	56	c	n	502.87	1	1000	100	0	0
167	3	60	?	P	d	169.01	NA	4	56	9	24	i	j	618.03	1	100	1000	0	0
167	3	61	?	P	d	119.27	NA	3	56	8	24	i	j	701.48	1	1000	100	0	0
167	3	62	?	N	f	335.55	NA	2	56	9	24	i	n	853.37	1	1000	100	0	0
167	3	63	?	N	f	219.19	NA	7	56	3	24	c	j	920.3	1	100	1000	0	0
167	3	64	?	N	f	152.58	NA	2	24	9	56	c	n	653.34	1	100	1000	0	0
167	3	65	?	N	f	68.85	NA	3	24	8	56	c	n	586.13	1	1000	100	0	0
167	4	1	?	N	f	250.52	NA	3	56	7	24	i	n	954.09	1	1000	1000	-1	0
167	4	2	?	N	f	402.94	NA	2	56	7	24	i	n	987.46	1	1000	100	0	0
167	4	3	?	N	f	2.45	NA	8	24	3	56	i	j	1954.23	1	1000	1000	0	0
167	4	4	?	N	f	169.02	NA	2	24	9	56	c	n	703.05	1	1000	100	0	0
167	4	5	?	N	f	152.35	NA	4	56	7	24	i	n	786.06	1	1000	100	0	0
167	4	6	?	N	f	235.95	NA	3	56	7	24	i	n	520.53	1	100	100	0	0
167	4	7	?	N	f	135.56	NA	8	56	4	24	c	j	753.24	1	1000	100	0	0
167	4	8	?	N	f	135.85	NA	8	56	3	24	c	j	553.29	1	1000	100	0	0
167	4	9	?	N	f	152.25	NA	9	24	4	56	i	j	887.15	1	100	1000	0	0
167	4	10	?	N	f	185.95	NA	8	56	3	24	c	j	536.61	1	100	1000	0	0
167	4	11	?	P	d	268.9	NA	4	56	8	24	i	n	1070.58	0	100	100	0	0
167	4	12	?	P	d	317.46	NA	8	24	3	56	i	n	769.99	1	100	100	0	1
167	4	13	?	P	d	219.08	NA	4	24	9	56	c	n	1287.83	1	100	1000	0	0
167	4	14	?	P	d	468.72	NA	2	56	8	24	i	j	870.55	1	1000	100	0	0
167	4	15	?	P	d	234.05	NA	3	24	8	56	c	n	636.92	1	100	1000	0	0
167	4	16	?	P	d	385.67	NA	2	56	8	24	i	j	519.8	1	100	1000	0	0
167	4	17	?	P	d	1153.53	NA	3	24	9	56	c	n	435.8	1	1000	1000	0	0
167	4	18	?	P	d	252.25	NA	4	56	9	24	i	j	620.08	1	100	100	0	0
167	4	19	?	P	d	252.78	NA	8	24	2	56	i	n	837.23	1	100	1000	0	0
167	4	20	?	P	d	386.09	NA	7	24	3	56	i	n	2154.19	1	1000	1000	0	0
167	4	21	?	N	f	384.27	NA	4	56	7	24	i	n	1086.0	1	100	1000	0	0
167	4	22	?	N	f	284.08	NA	3	56	8	24	i	n	686.78	1	1000	1000	0	0
167	4	23	?	N	f	369.18	NA	7	24	4	56	i	j	1071.02	1	1000	100	0	0
167	4	24	?	N	f	402.79	NA	9	56	3	24	c	j	1104.16	1	100	1000	0	0
167	4	25	?	N	f	486.02	NA	2	24	7	56	c	n	653.32	1	100	100	0	0
167	4	26	?	P	d	619.59	NA	7	56	3	24	c	j	502.76	1	100	1000	0	0
167	4	27	?	N	f	1103.57	NA	4	24	9	56	c	n	769.99	1	1000	100	0	0
167	4	28	?	P	d	370.12	NA	7	24	2	56	i	n	586.92	1	100	1000	0	0
167	4	29	?	N	f	1070.26	NA	8	24	4	56	i	j	619.98	1	1000	1000	0	0
167	4	30	?	P	d	669.65	NA	7	56	2	24	c	j	1053.59	1	1000	1000	0	0
167	4	31	?	N	f	268.84	NA	7	24	3	56	i	j	786.67	1	100	1000	0	0
167	4	32	?	P	d	636.16	NA	2	56	9	24	i	j	1036.87	1	1000	100	0	0
167	4	33	?	N	f	302.6	NA	9	24	3	56	i	j	654.29	1	1000	1000	0	0
167	4	34	?	P	d	1119.8	NA	8	56	4	24	c	j	836.99	1	1000	1000	0	0
167	4	35	?	N	f	369.2	NA	7	56	2	24	c	j	601.54	1	1000	100	0	0
167	4	36	?	P	d	18.99	NA	3	56	7	24	i	j	719.96	1	1000	1000	0	0
167	4	37	?	N	f	19.11	NA	4	24	9	56	c	n	670.41	1	1000	100	0	0
167	4	38	?	P	d	503.38	NA	3	24	7	56	c	n	1220.31	1	100	1000	0	0
167	4	39	?	N	f	302.77	NA	9	56	4	24	c	j	502.51	1	100	100	0	0
167	4	40	?	N	f	2.48	NA	2	24	8	56	c	n	1136.66	1	1000	100	0	0
167	4	41	?	N	f	335.97	NA	7	56	3	24	c	j	602.75	1	100	100	0	0
167	4	42	?	N	f	1403.56	NA	4	56	9	24	i	n	803.1	1	1000	100	0	0
167	4	43	?	N	f	319.14	NA	2	56	8	24	i	n	603.23	1	100	100	0	0
167	4	44	?	N	f	402.66	NA	3	24	7	56	c	n	569.7	1	1000	1000	0	0
167	4	45	?	N	f	319.39	NA	9	24	4	56	i	j	704.04	1	100	100	0	0
167	4	46	?	N	f	269.27	NA	2	56	7	24	i	n	970.33	1	100	1000	0	0
167	4	47	?	N	f	235.86	NA	8	56	4	24	c	j	519.3	1	100	100	0	0
167	4	48	?	N	f	235.79	NA	8	56	2	24	c	j	669.94	1	100	1000	0	0
167	4	49	?	P	d	436.32	NA	8	56	3	24	c	j	570.2	1	1000	1000	0	0
167	4	50	?	P	d	252.42	NA	4	24	8	56	c	n	453.46	1	1000	1000	0	0
167	4	51	?	P	d	235.88	NA	2	24	8	56	c	n	486.83	1	100	100	0	0
167	4	52	?	P	d	602.74	NA	9	24	3	56	i	n	869.76	1	1000	1000	0	0
167	4	53	?	P	d	302.78	NA	4	24	9	56	c	n	586.42	1	1000	1000	0	0
167	4	54	?	P	d	902.6	NA	7	56	3	24	c	j	470.11	1	1000	1000	0	0
167	4	55	?	N	f	119.03	NA	7	56	4	24	c	j	653.41	1	1000	100	0	0
167	4	56	?	N	f	300.52	NA	8	56	2	24	c	j	620.21	1	100	100	0	0
167	4	57	?	N	f	536.48	NA	9	24	3	56	i	j	669.63	1	1000	100	0	0
167	4	58	?	N	f	200.41	NA	4	24	7	56	c	n	619.39	1	100	100	0	0
167	4	59	?	N	f	169.23	NA	2	24	8	56	c	n	570.12	1	100	100	0	0
167	4	60	?	N	f	185.82	NA	7	24	3	56	i	j	753.39	1	100	1000	0	0
167	4	61	?	N	f	202.64	NA	2	24	9	56	c	n	570.47	1	100	1000	0	0
167	4	62	?	N	f	185.68	NA	9	24	4	56	i	j	952.96	1	100	100	0	0
167	4	63	?	P	d	1353.44	NA	8	24	3	56	i	n	719.82	1	1000	1000	0	0
167	4	64	?	P	d	369.06	NA	8	24	4	56	i	n	820.55	1	1000	100	0	0
167	4	65	?	P	d	153.0	NA	7	24	3	56	i	n	921.06	1	100	100	0	0
167	5	1	?	P	d	2104.73	NA	4	56	8	24	i	j	753.13	1	100	100	-1	0
167	5	2	?	P	d	586.14	NA	2	24	7	56	c	n	767.71	1	1000	1000	0	0
167	5	3	?	P	d	185.85	NA	3	56	7	24	i	j	453.51	1	100	1000	0	0
167	5	4	?	P	d	219.25	NA	4	56	8	24	i	j	569.81	1	1000	100	0	0
167	5	5	?	P	d	52.47	NA	2	56	8	24	i	j	551.09	1	1000	1000	0	0
167	5	6	?	P	d	118.78	NA	9	24	3	56	i	n	1003.4	1	100	1000	0	0
167	5	7	?	P	d	85.55	NA	2	24	7	56	c	n	520.4	1	1000	1000	0	0
167	5	8	?	N	f	669.11	NA	3	56	7	24	i	n	870.33	1	1000	100	0	0
167	5	9	?	N	f	318.73	NA	4	56	7	24	i	n	701.22	1	100	100	0	0
167	5	10	?	N	f	569.63	NA	7	24	2	56	i	j	1103.42	1	1000	100	0	0
167	5	11	?	N	f	1170.43	NA	8	24	4	56	i	j	903.37	1	1000	100	0	0
167	5	12	?	N	f	234.05	NA	7	24	2	56	i	j	619.57	1	100	1000	0	0
167	5	13	?	N	f	119.4	NA	7	56	3	24	c	j	1470.88	1	100	1000	0	0
167	5	14	?	N	f	502.31	NA	9	56	4	24	c	j	652.89	1	100	1000	0	0
167	5	15	?	N	f	736.57	NA	8	24	2	56	i	j	587.08	1	100	1000	0	0
167	5	16	?	N	f	185.68	NA	4	24	9	56	c	n	653.84	1	100	100	0	0
167	5	17	?	N	f	135.61	NA	2	56	9	24	i	n	719.94	1	100	100	0	0
167	5	18	?	N	f	619.46	NA	7	24	3	56	i	j	620.5	1	1000	1000	0	0
167	5	19	?	N	f	52.91	NA	4	24	9	56	c	n	785.18	1	100	100	0	0
167	5	20	?	N	f	85.67	NA	9	24	2	56	i	j	634.04	1	100	100	0	0
167	5	21	?	P	d	569.67	NA	8	24	4	56	i	n	620.25	1	1000	1000	0	0
167	5	22	?	P	d	336.13	NA	8	24	3	56	i	n	653.77	1	1000	100	0	0
167	5	23	?	P	d	2.43	NA	9	56	4	24	c	j	670.45	1	1000	1000	0	0
167	5	24	?	P	d	636.27	NA	3	24	8	56	c	n	637.06	1	1000	100	0	0
167	5	25	?	P	d	152.6	NA	8	24	2	56	i	n	1002.67	1	100	100	0	0
167	5	26	?	P	d	85.59	NA	4	24	8	56	c	n	2672.11	1	100	100	0	0
167	5	27	?	P	d	619.72	NA	3	56	8	24	i	j	820.55	1	100	100	0	0
167	5	28	?	P	d	686.18	NA	8	56	4	24	c	j	553.36	1	1000	100	0	0
167	5	29	?	N	f	586.14	NA	9	56	2	24	c	j	786.59	1	1000	100	0	0
167	5	30	?	N	f	385.96	NA	3	24	9	56	c	n	603.13	1	1000	100	0	0
167	5	31	?	N	f	202.34	NA	8	56	2	24	c	j	568.21	1	100	100	0	0
167	5	32	?	N	f	185.85	NA	3	24	8	56	c	n	601.58	1	100	1000	0	0
167	5	33	?	N	f	185.53	NA	2	24	8	56	c	n	1521.15	1	100	1000	0	0
167	5	34	?	N	f	68.94	NA	7	56	3	24	c	j	851.64	1	1000	100	0	0
167	5	35	?	N	f	1153.62	NA	8	56	4	24	c	j	586.13	1	1000	1000	0	0
167	5	36	?	N	f	103.37	NA	8	56	2	24	c	j	536.34	1	100	100	0	0
167	5	37	?	N	f	1120.23	NA	9	24	3	56	i	j	669.02	1	1000	1000	0	0
167	5	38	?	P	d	352.68	NA	4	24	7	56	c	n	853.09	1	1000	100	0	0
167	5	39	?	P	d	203.07	NA	8	56	3	24	c	j	619.63	1	100	100	0	0
167	5	40	?	P	d	185.91	NA	2	24	8	56	c	n	603.98	1	100	1000	0	0
167	5	41	?	P	d	335.3	NA	7	56	3	24	c	j	586.74	1	1000	100	0	0
167	5	42	?	P	d	118.87	NA	4	24	9	56	c	n	636.16	1	100	100	0	0
167	5	43	?	P	d	920.1	NA	9	24	3	56	i	j	586.91	0	1000	100	0	0
167	5	44	?	N	f	901.52	NA	4	56	8	24	i	n	802.43	1	100	1000	0	1
167	5	45	?	N	f	853.39	NA	8	56	2	24	c	j	569.99	1	1000	1000	0	0
167	5	46	?	N	f	653.15	NA	7	24	3	56	i	j	1169.72	1	1000	100	0	0
167	5	47	?	N	f	319.51	NA	4	24	8	56	c	n	602.78	1	1000	100	0	0
167	5	48	?	N	f	5174.74	NA	3	56	9	24	i	n	552.98	1	1000	1000	0	0
167	5	49	?	N	f	2.42	NA	4	24	8	56	c	n	1938.43	1	1000	1000	0	0
167	5	50	?	N	f	736.28	NA	9	24	2	56	i	j	520.33	1	1000	1000	0	0
167	5	51	?	N	f	69.17	NA	4	24	7	56	c	n	619.73	1	1000	1000	0	0
167	5	52	?	N	f	436.1	NA	3	56	7	24	i	n	686.32	1	1000	100	0	0
167	5	53	?	N	f	18.5	NA	4	56	7	24	i	n	753.84	1	100	100	0	0
167	5	54	?	N	f	519.22	NA	2	56	8	24	i	n	503.18	1	100	1000	0	0
167	5	55	?	N	f	485.91	NA	4	56	7	24	i	n	619.56	1	1000	1000	0	0
167	5	56	?	N	f	369.06	NA	7	24	2	56	i	j	653.41	1	100	100	0	0
167	5	57	?	P	d	2638.1	NA	8	24	3	56	i	j	669.33	0	1000	1000	0	0
167	5	58	?	P	d	101.63	NA	9	56	2	24	c	j	686.62	1	1000	1000	0	1
167	5	59	?	P	d	302.63	NA	3	56	8	24	i	j	686.85	1	100	100	0	0
167	5	60	?	P	d	219.05	NA	8	56	4	24	c	j	503.46	1	100	100	0	0
167	5	61	?	P	d	202.55	NA	7	56	3	24	c	j	486.76	1	100	1000	0	0
167	5	62	?	P	d	151.71	NA	2	24	8	56	c	n	635.95	1	100	1000	0	0
167	5	63	?	P	d	133.7	NA	3	56	8	24	i	j	453.04	1	100	1000	0	0
167	5	64	?	P	d	135.37	NA	9	24	2	56	i	n	669.47	1	100	1000	0	0
167	5	65	?	P	d	169.29	NA	8	56	4	24	c	j	702.92	1	100	1000	0	0
167	6	1	?	P	d	636.32	NA	2	56	8	24	i	j	1320.34	1	1000	100	-1	0
167	6	2	?	P	d	169.09	NA	3	24	7	56	c	n	469.92	1	100	1000	0	0
167	6	3	?	P	d	118.71	NA	2	56	7	24	i	j	519.95	1	1000	1000	0	0
167	6	4	?	P	d	636.33	NA	9	56	4	24	c	j	536.54	1	1000	100	0	0
167	6	5	?	P	d	168.36	NA	7	56	2	24	c	j	552.78	1	100	1000	0	0
167	6	6	?	N	f	135.33	NA	3	56	8	24	i	n	1721.14	1	100	100	0	0
167	6	7	?	P	d	419.13	NA	4	56	8	24	i	j	635.7	1	1000	100	0	0
167	6	8	?	P	d	769.84	NA	7	56	2	24	c	j	419.26	1	1000	1000	0	0
167	6	9	?	N	f	252.3	NA	9	56	3	24	c	j	586.23	1	100	1000	0	0
167	6	10	?	N	f	152.44	NA	9	24	4	56	i	n	536.64	0	100	1000	0	0
167	6	11	?	N	f	569.69	NA	2	56	7	24	i	n	686.15	1	1000	1000	0	1
167	6	12	?	N	f	168.77	NA	8	56	4	24	c	j	568.22	1	100	100	0	0
167	6	13	?	N	f	636.21	NA	7	56	3	24	c	j	502.57	1	1000	1000	0	0
167	6	14	?	N	f	352.65	NA	4	56	7	24	i	n	586.21	1	1000	100	0	0
167	6	15	?	N	f	85.23	NA	9	56	2	24	c	j	536.68	1	100	1000	0	0
167	6	16	?	N	f	2571.82	NA	8	56	3	24	c	j	569.01	1	1000	1000	0	0
167	6	17	?	N	f	152.37	NA	4	24	9	56	c	n	486.66	1	100	1000	0	0
167	6	18	?	N	f	101.96	NA	7	24	3	56	i	n	517.36	0	100	1000	0	0
167	6	19	?	N	f	1169.97	NA	9	24	4	56	i	j	1020.05	1	1000	100	0	1
167	6	20	?	N	f	2.43	NA	9	24	2	56	i	j	570.08	1	1000	100	0	0
167	6	21	?	N	f	53.12	NA	8	24	4	56	i	j	702.83	1	100	100	0	0
167	6	22	?	N	f	18.19	NA	8	24	2	56	i	j	519.32	1	1000	1000	0	0
167	6	23	?	P	d	419.35	NA	8	56	3	24	c	j	570.08	1	1000	100	0	0
167	6	24	?	P	d	352.07	NA	9	56	2	24	c	j	486.53	1	100	100	0	0
167	6	25	?	P	d	302.18	NA	8	24	4	56	i	n	753.76	1	100	1000	0	0
167	6	26	?	P	d	302.7	NA	7	24	3	56	i	n	803.9	1	100	1000	0	0
167	6	27	?	P	d	85.77	NA	8	56	2	24	c	j	569.73	1	1000	100	0	0
167	6	28	?	P	d	335.33	NA	4	56	7	24	i	j	819.98	1	100	1000	0	0
167	6	29	?	P	d	318.73	NA	7	24	2	56	i	n	686.36	1	100	1000	0	0
167	6	30	?	P	d	452.69	NA	4	24	7	56	c	n	620.0	1	1000	100	0	0
167	6	31	?	N	f	369.33	NA	3	24	8	56	c	n	886.77	1	1000	1000	0	0
167	6	32	?	N	f	235.37	NA	8	24	2	56	i	j	586.69	1	100	100	0	0
167	6	33	?	N	f	435.97	NA	3	24	7	56	c	n	702.49	1	1000	1000	0	0
167	6	34	?	N	f	218.82	NA	7	56	2	24	c	j	1370.33	1	1000	1000	0	0
167	6	35	?	N	f	767.87	NA	3	24	7	56	c	n	503.25	1	1000	100	0	0
167	6	36	?	N	f	453.07	NA	2	56	7	24	i	n	619.79	1	1000	100	0	0
167	6	37	?	N	f	252.16	NA	7	56	4	24	c	j	520.02	1	100	1000	0	0
167	6	38	?	N	f	252.24	NA	2	24	7	56	c	n	518.99	1	100	100	0	0
167	6	39	?	N	f	218.68	NA	4	24	9	56	c	n	486.59	1	100	100	0	0
167	6	40	?	N	f	252.4	NA	3	56	7	24	i	n	1253.7	1	100	100	0	0
167	6	41	?	P	d	1387.18	NA	8	24	2	56	i	n	870.24	1	1000	100	0	0
167	6	42	?	P	d	219.2	NA	3	24	7	56	c	n	502.9	1	100	100	0	0
167	6	43	?	P	d	219.0	NA	4	56	7	24	i	j	518.93	1	100	1000	0	0
167	6	44	?	P	d	202.33	NA	8	24	2	56	i	n	502.81	1	100	1000	0	0
167	6	45	?	P	d	135.71	NA	4	56	8	24	i	j	553.42	1	100	100	0	0
167	6	46	?	P	d	169.1	NA	2	24	8	56	c	n	536.29	1	100	100	0	0
167	6	47	?	P	d	202.58	NA	9	56	4	24	c	j	586.8	1	100	100	0	0
167	6	48	?	P	d	85.68	NA	2	24	8	56	c	n	536.21	1	1000	1000	0	0
167	6	49	?	P	d	386.19	NA	9	24	4	56	i	n	486.43	1	1000	100	0	0
167	6	50	?	P	d	135.96	NA	9	24	3	56	i	n	737.13	1	1000	1000	0	0
167	6	51	?	N	f	469.3	NA	4	24	8	56	c	n	1537.72	1	1000	100	0	0
167	6	52	?	N	f	569.81	NA	3	24	7	56	c	n	536.18	1	100	1000	0	0
167	6	53	?	N	f	469.34	NA	7	24	2	56	i	j	1237.28	1	1000	100	0	0
167	6	54	?	N	f	736.54	NA	4	24	7	56	c	n	436.49	1	1000	1000	0	0
167	6	55	?	N	f	252.16	NA	8	24	2	56	i	j	770.21	1	100	100	0	0
167	6	56	?	N	f	202.59	NA	7	24	4	56	i	j	620.47	1	1000	1000	0	0
167	6	57	?	N	f	436.03	NA	8	56	3	24	c	j	486.09	1	1000	100	0	0
167	6	58	?	N	f	167.14	NA	9	56	4	24	c	j	469.63	1	100	100	0	0
167	6	59	?	N	f	486.13	NA	7	24	2	56	i	j	602.86	1	1000	1000	0	0
167	6	60	?	N	f	652.73	NA	4	24	8	56	c	n	586.82	1	1000	100	0	0
167	6	61	?	P	d	352.57	NA	7	24	2	56	i	n	587.13	1	100	100	0	0
167	6	62	?	P	d	202.43	NA	8	24	3	56	i	n	452.86	1	1000	1000	0	0
167	6	63	?	P	d	369.39	NA	8	24	4	56	i	n	719.43	1	1000	1000	0	0
167	6	64	?	P	d	185.44	NA	3	24	9	56	c	n	502.01	1	100	1000	0	0
167	6	65	?	P	d	202.5	NA	9	24	2	56	i	n	1154.02	1	100	100	0	0
