subj	block	trial	task_cue	task	choice_resp	choiceRT	choice_acc	topnum	topsize	botnum	botsize	cong	task_resp	taskRT	task_acc	RSI	CSI	altRep	E1
169	1	1	?	N	d	986.43	NA	2	56	8	24	i	j	5458.57	0	1000	100	-1	0
169	1	2	?	P	f	136.44	NA	7	56	3	24	c	j	1387.36	1	1000	1000	0	1
169	1	3	?	P	f	954.01	NA	7	56	2	24	c	j	3473.23	1	100	1000	0	0
169	1	4	?	P	f	536.89	NA	3	56	7	24	i	j	1087.1	1	1000	100	0	0
169	1	5	?	P	f	570.08	NA	8	24	2	56	i	j	903.98	0	1000	100	0	0
169	1	6	?	N	d	118.81	NA	3	24	8	56	c	n	817.8	1	1000	100	0	1
169	1	7	?	N	d	336.66	NA	4	24	7	56	c	n	620.35	1	1000	100	0	0
169	1	8	?	N	d	569.97	NA	8	56	2	24	c	j	1153.78	1	1000	100	0	0
169	1	9	?	P	f	987.08	NA	3	56	9	24	i	n	553.25	0	100	1000	0	0
169	1	10	?	N	d	469.85	NA	4	56	8	24	i	j	1220.26	0	1000	100	0	1
169	1	11	?	P	f	770.15	NA	2	24	8	56	c	n	1086.72	1	1000	100	0	1
169	1	12	?	P	f	419.81	NA	8	24	3	56	i	j	603.21	0	1000	100	0	0
169	1	13	?	N	d	335.81	NA	9	24	4	56	i	n	1388.1	0	1000	100	0	1
169	1	14	?	N	d	703.86	NA	2	24	8	56	c	n	620.35	1	1000	1000	0	1
169	1	15	?	N	d	1187.72	NA	3	56	9	24	i	j	1137.07	0	100	100	0	0
169	1	16	?	P	f	135.93	NA	2	56	7	24	i	n	1021.07	0	1000	100	0	1
169	1	17	?	P	f	2371.98	NA	3	24	8	56	c	n	620.1	1	100	1000	0	1
169	1	18	?	P	f	370.1	NA	2	56	8	24	i	n	517.51	0	1000	1000	0	0
169	1	19	?	N	d	319.58	NA	4	56	8	24	i	j	2189.15	0	1000	1000	0	1
169	1	20	?	N	d	1537.64	NA	8	56	3	24	c	j	953.65	1	100	100	0	1
169	1	21	?	N	d	1254.39	NA	7	56	2	24	c	j	636.9	1	100	1000	0	0
169	1	22	?	P	f	136.01	NA	3	24	9	56	c	n	585.96	1	1000	1000	0	0
169	1	23	?	P	f	2121.8	NA	2	24	8	56	c	n	569.53	1	100	100	0	0
169	1	24	?	P	f	1954.2	NA	3	56	7	24	i	n	935.2	0	100	100	0	0
169	1	25	?	N	d	2940.07	NA	7	24	4	56	i	n	1937.59	0	100	100	0	1
169	1	26	?	N	d	2655.29	NA	3	56	7	24	i	j	1704.79	0	100	1000	0	1
169	1	27	?	P	f	369.59	NA	8	56	2	24	c	j	786.56	1	1000	100	0	1
169	1	28	?	N	d	435.79	NA	3	24	8	56	c	n	586.41	1	1000	100	0	0
169	1	29	?	P	f	186.3	NA	8	56	2	24	c	j	635.98	1	1000	1000	0	0
169	1	30	?	P	f	152.19	NA	9	56	3	24	c	j	486.4	1	1000	1000	0	0
169	1	31	?	P	f	469.85	NA	7	56	2	24	c	j	503.4	1	1000	1000	0	0
169	1	32	?	N	d	1070.64	NA	7	56	4	24	c	j	536.42	1	100	1000	0	0
169	1	33	?	N	d	1270.72	NA	2	24	8	56	c	n	503.04	1	100	1000	0	0
169	1	34	?	N	d	569.27	NA	4	24	8	56	c	n	434.07	1	1000	1000	0	0
169	1	35	?	N	d	2336.29	NA	3	24	7	56	c	n	519.6	1	100	100	0	0
169	1	36	?	P	f	335.71	NA	8	56	2	24	c	j	868.14	1	1000	100	0	0
169	1	37	?	P	f	1070.8	NA	9	24	3	56	i	j	769.3	0	100	100	0	0
169	1	38	?	N	d	920.21	NA	4	24	9	56	c	n	786.73	1	100	100	0	1
169	1	39	?	P	f	953.62	NA	2	56	9	24	i	j	1488.51	1	100	100	0	0
169	1	40	?	P	f	1404.61	NA	3	56	8	24	i	n	586.31	0	100	1000	0	0
169	1	41	?	P	f	1153.76	NA	7	56	2	24	c	j	802.46	1	100	100	0	1
169	1	42	?	N	d	1120.49	NA	3	56	7	24	i	j	803.32	0	100	1000	0	0
169	1	43	?	N	d	1287.61	NA	4	56	8	24	i	j	634.58	0	100	1000	0	1
169	1	44	?	N	d	219.57	NA	7	56	3	24	c	j	569.79	1	1000	100	0	1
169	1	45	?	N	d	1487.11	NA	4	56	9	24	i	j	684.34	0	100	100	0	0
169	1	46	?	P	f	1370.35	NA	7	24	3	56	i	j	969.84	0	1000	1000	0	1
169	1	47	?	P	f	1120.53	NA	4	24	7	56	c	n	770.38	1	100	100	0	1
169	1	48	?	P	f	1370.91	NA	3	56	8	24	i	j	853.31	1	100	1000	0	0
169	1	49	?	P	f	52.1	NA	8	24	2	56	i	j	569.97	0	1000	1000	0	0
169	1	50	?	P	f	285.72	NA	4	56	8	24	i	n	819.77	0	1000	100	0	1
169	1	51	?	N	d	1287.54	NA	7	56	2	24	c	j	553.22	1	100	100	0	1
169	1	52	?	N	d	302.95	NA	9	24	4	56	i	n	703.66	0	1000	1000	0	0
169	1	53	?	N	d	1303.98	NA	9	56	3	24	c	j	1103.25	1	100	100	0	1
169	1	54	?	N	d	1604.32	NA	2	56	8	24	i	j	519.82	0	100	1000	0	0
169	1	55	?	P	f	369.87	NA	7	24	3	56	i	n	804.2	1	1000	1000	0	1
169	1	56	?	P	f	2505.44	NA	2	56	8	24	i	n	987.28	0	100	1000	0	0
169	1	57	?	P	f	667.67	NA	3	24	9	56	c	n	487.58	1	1000	1000	0	1
169	1	58	?	N	d	470.16	NA	8	24	2	56	i	j	519.67	1	1000	1000	0	0
169	1	59	?	N	d	1652.26	NA	4	24	8	56	c	n	619.82	1	100	1000	0	0
169	1	60	?	P	f	1353.44	NA	9	24	3	56	i	j	787.1	0	100	100	0	0
169	1	61	?	N	d	469.89	NA	7	24	4	56	i	n	970.45	0	1000	1000	0	1
169	1	62	?	P	f	853.7	NA	2	56	7	24	i	n	703.67	0	100	100	0	1
169	1	63	?	N	d	186.44	NA	4	56	7	24	i	j	786.67	0	1000	100	0	1
169	1	64	?	P	f	436.33	NA	9	56	2	24	c	j	586.49	1	100	1000	0	1
169	1	65	?	N	d	319.5	NA	4	24	9	56	c	n	651.18	1	100	1000	0	0
169	2	1	?	N	d	1620.83	NA	3	24	7	56	c	n	1087.38	1	1000	1000	-1	0
169	2	2	?	N	d	52.08	NA	4	24	7	56	c	n	369.24	1	1000	1000	0	0
169	2	3	?	N	d	1354.38	NA	3	56	8	24	i	j	737.13	0	100	1000	0	0
169	2	4	?	P	f	286.31	NA	7	24	2	56	i	j	486.67	0	1000	1000	0	1
169	2	5	?	P	f	1437.23	NA	7	24	3	56	i	j	1070.13	0	100	1000	0	1
169	2	6	?	P	f	2238.51	NA	8	56	4	24	c	j	453.18	1	100	100	0	1
169	2	7	?	P	f	1371.36	NA	2	56	7	24	i	n	503.08	0	100	1000	0	0
169	2	8	?	P	f	1287.62	NA	4	56	7	24	i	j	717.62	1	100	100	0	1
169	2	9	?	P	f	652.63	NA	2	56	7	24	i	n	553.12	0	1000	1000	0	0
169	2	10	?	N	d	1721.2	NA	7	24	4	56	i	n	719.49	0	100	100	0	1
169	2	11	?	N	d	303.09	NA	2	24	9	56	c	n	434.27	1	1000	100	0	1
169	2	12	?	N	d	302.24	NA	8	24	3	56	i	n	820.82	0	1000	100	0	0
169	2	13	?	N	d	370.53	NA	4	24	7	56	c	n	587.56	1	1000	1000	0	1
169	2	14	?	N	d	68.77	NA	7	24	3	56	i	n	470.57	0	1000	1000	0	0
169	2	15	?	N	d	102.28	NA	2	56	8	24	i	j	769.57	0	1000	1000	0	1
169	2	16	?	P	f	1237.01	NA	4	24	9	56	c	n	470.09	1	100	100	0	1
169	2	17	?	P	f	369.95	NA	3	24	9	56	c	n	636.64	1	1000	1000	0	0
169	2	18	?	P	f	469.88	NA	2	56	9	24	i	j	602.84	1	1000	1000	0	0
169	2	19	?	P	f	1538.04	NA	3	56	8	24	i	n	703.31	0	100	1000	0	0
169	2	20	?	P	f	536.42	NA	9	24	2	56	i	j	569.58	0	1000	1000	0	1
169	2	21	?	N	d	1153.96	NA	8	56	4	24	c	j	1471.05	1	100	1000	0	1
169	2	22	?	N	d	1151.5	NA	8	56	2	24	c	j	453.02	1	100	1000	0	0
169	2	23	?	N	d	152.85	NA	3	56	8	24	i	n	603.74	1	1000	100	0	0
169	2	24	?	N	d	1086.56	NA	8	24	4	56	i	j	617.97	1	100	100	0	0
169	2	25	?	N	d	386.53	NA	7	24	3	56	i	n	601.67	0	1000	1000	0	0
169	2	26	?	N	d	769.85	NA	8	56	2	24	c	j	987.24	1	100	100	0	1
169	2	27	?	N	d	186.3	NA	9	56	4	24	c	j	587.3	1	1000	1000	0	0
169	2	28	?	P	f	319.54	NA	7	24	3	56	i	n	703.43	1	100	100	0	0
169	2	29	?	P	f	770.41	NA	9	24	4	56	i	j	753.95	0	100	100	0	0
169	2	30	?	P	f	69.39	NA	9	24	3	56	i	j	569.46	0	1000	1000	0	1
169	2	31	?	N	d	502.95	NA	2	24	9	56	c	n	819.62	1	100	1000	0	1
169	2	32	?	N	d	352.72	NA	4	56	7	24	i	j	402.69	0	100	1000	0	0
169	2	33	?	N	d	353.18	NA	9	24	3	56	i	n	520.35	0	100	100	0	1
169	2	34	?	N	d	452.36	NA	8	24	4	56	i	n	403.08	0	1000	100	0	1
169	2	35	?	P	f	469.74	NA	9	24	3	56	i	j	770.14	0	1000	100	0	1
169	2	36	?	P	f	252.76	NA	7	24	2	56	i	j	786.26	0	1000	100	0	1
169	2	37	?	N	d	302.42	NA	4	24	7	56	c	n	436.76	1	100	1000	0	1
169	2	38	?	N	d	236.53	NA	2	24	7	56	c	n	402.66	1	1000	100	0	0
169	2	39	?	P	f	252.79	NA	9	56	4	24	c	j	403.24	1	100	1000	0	0
169	2	40	?	P	f	219.63	NA	2	24	8	56	c	n	453.28	1	1000	100	0	0
169	2	41	?	N	d	219.61	NA	7	24	4	56	i	n	1120.34	0	1000	100	0	0
169	2	42	?	N	d	352.64	NA	8	56	3	24	c	j	820.39	1	1000	100	0	1
169	2	43	?	P	f	584.53	NA	7	56	2	24	c	j	901.46	1	1000	100	0	0
169	2	44	?	P	f	570.14	NA	3	24	7	56	c	n	386.55	1	1000	1000	0	0
169	2	45	?	N	d	453.01	NA	7	56	4	24	c	j	820.97	1	100	100	0	0
169	2	46	?	P	f	119.4	NA	8	56	3	24	c	j	770.23	1	1000	1000	0	0
169	2	47	?	N	d	367.47	NA	2	56	8	24	i	j	586.12	0	1000	100	0	0
169	2	48	?	N	d	651.62	NA	3	24	9	56	c	n	453.52	1	100	100	0	1
169	2	49	?	P	f	436.45	NA	8	56	2	24	c	j	470.5	1	1000	1000	0	0
169	2	50	?	P	f	2271.43	NA	8	56	3	24	c	j	486.22	1	1000	100	0	0
169	2	51	?	P	f	1638.02	NA	2	56	9	24	i	n	553.63	0	100	1000	0	0
169	2	52	?	N	d	417.57	NA	8	24	3	56	i	j	603.29	1	1000	100	0	1
169	2	53	?	N	d	1454.26	NA	2	56	8	24	i	j	703.48	0	100	100	0	0
169	2	54	?	N	d	202.68	NA	9	56	4	24	c	j	519.59	1	1000	100	0	1
169	2	55	?	N	d	286.56	NA	7	56	3	24	c	j	634.6	1	1000	1000	0	0
169	2	56	?	P	f	1136.66	NA	4	24	8	56	c	n	437.05	1	100	1000	0	0
169	2	57	?	P	f	2171.47	NA	9	24	3	56	i	j	2121.53	0	100	1000	0	0
169	2	58	?	P	f	1220.58	NA	9	24	4	56	i	j	569.98	0	100	100	0	1
169	2	59	?	P	f	1170.37	NA	2	24	7	56	c	n	600.83	1	100	100	0	1
169	2	60	?	N	d	69.22	NA	3	24	7	56	c	n	870.03	1	1000	100	0	0
169	2	61	?	N	d	653.22	NA	8	56	2	24	c	j	518.18	1	100	1000	0	0
169	2	62	?	N	d	619.77	NA	8	56	3	24	c	j	403.44	1	100	100	0	0
169	2	63	?	N	d	469.77	NA	4	24	9	56	c	n	536.61	1	100	100	0	0
169	2	64	?	N	d	401.0	NA	8	24	3	56	i	n	720.24	0	100	1000	0	0
169	2	65	?	P	f	1003.29	NA	4	24	8	56	c	n	603.41	1	100	1000	0	1
169	3	1	?	N	d	670.29	NA	4	24	8	56	c	n	570.49	1	1000	100	-1	0
169	3	2	?	N	d	186.19	NA	8	56	3	24	c	j	467.69	1	100	1000	0	0
169	3	3	?	N	d	333.91	NA	2	24	7	56	c	n	419.63	1	100	1000	0	0
169	3	4	?	P	f	586.76	NA	4	56	9	24	i	n	620.11	0	100	1000	0	0
169	3	5	?	P	f	403.17	NA	7	24	2	56	i	j	569.94	0	100	100	0	1
169	3	6	?	P	f	319.63	NA	8	24	4	56	i	j	687.19	0	100	1000	0	1
169	3	7	?	P	f	602.82	NA	8	56	2	24	c	n	419.22	0	100	1000	0	1
169	3	8	?	N	d	1604.34	NA	8	56	3	24	c	j	419.62	1	1000	100	0	1
169	3	9	?	N	d	419.74	NA	4	56	9	24	i	j	819.53	0	100	1000	0	0
169	3	10	?	P	f	136.25	NA	8	24	2	56	i	n	853.13	1	1000	1000	0	1
169	3	11	?	P	f	286.49	NA	4	56	9	24	i	j	802.98	1	1000	1000	0	0
169	3	12	?	P	f	1304.13	NA	2	24	8	56	c	n	552.94	1	100	1000	0	0
169	3	13	?	P	f	402.52	NA	7	56	4	24	c	j	551.51	1	1000	1000	0	0
169	3	14	?	P	f	353.0	NA	3	56	7	24	i	n	603.37	0	1000	1000	0	0
169	3	15	?	N	d	252.87	NA	4	56	7	24	i	j	484.08	0	100	1000	0	1
169	3	16	?	N	d	269.02	NA	8	56	2	24	c	j	820.87	1	1000	100	0	1
169	3	17	?	N	d	1137.28	NA	8	24	4	56	i	n	586.52	0	100	1000	0	0
169	3	18	?	N	d	352.89	NA	2	56	7	24	i	j	1386.97	0	100	100	0	1
169	3	19	?	P	f	553.44	NA	4	24	9	56	c	n	586.89	1	100	100	0	1
169	3	20	?	N	d	336.15	NA	2	24	7	56	c	n	536.32	1	1000	100	0	0
169	3	21	?	P	f	1003.82	NA	3	56	9	24	i	n	1871.44	0	100	100	0	0
169	3	22	?	N	d	219.26	NA	9	56	2	24	c	j	1454.05	1	1000	100	0	1
169	3	23	?	N	d	2.69	NA	4	56	8	24	i	j	870.65	0	1000	1000	0	0
169	3	24	?	P	f	52.6	NA	9	24	3	56	i	j	736.99	0	1000	100	0	1
169	3	25	?	P	f	267.35	NA	8	56	4	24	c	j	487.21	1	1000	100	0	1
169	3	26	?	N	d	2.67	NA	7	24	2	56	i	n	402.97	0	1000	100	0	0
169	3	27	?	P	f	136.14	NA	9	24	4	56	i	j	570.21	0	1000	100	0	1
169	3	28	?	N	d	1120.11	NA	3	24	8	56	c	n	620.05	1	100	100	0	1
169	3	29	?	P	f	1087.31	NA	7	56	4	24	c	j	553.5	1	100	100	0	0
169	3	30	?	N	d	670.08	NA	7	56	3	24	c	j	953.65	1	100	100	0	0
169	3	31	?	P	f	569.63	NA	2	24	8	56	c	n	553.48	1	1000	100	0	0
169	3	32	?	N	d	469.82	NA	4	24	9	56	c	n	567.57	1	100	100	0	0
169	3	33	?	P	f	886.9	NA	2	24	8	56	c	n	452.92	1	100	100	0	0
169	3	34	?	N	d	402.97	NA	3	56	9	24	i	n	1668.82	1	100	100	0	0
169	3	35	?	N	d	536.63	NA	9	56	2	24	c	j	753.58	1	1000	1000	0	0
169	3	36	?	P	f	419.54	NA	3	24	7	56	c	n	470.42	1	1000	1000	0	0
169	3	37	?	N	d	386.15	NA	2	24	7	56	c	n	586.35	1	1000	1000	0	0
169	3	38	?	P	f	753.18	NA	4	56	8	24	i	n	636.52	0	1000	100	0	0
169	3	39	?	N	d	253.63	NA	8	24	3	56	i	n	752.81	0	1000	1000	0	1
169	3	40	?	P	f	734.52	NA	7	24	2	56	i	n	668.95	1	100	100	0	1
169	3	41	?	N	d	419.81	NA	8	24	4	56	i	n	669.9	0	1000	100	0	0
169	3	42	?	P	f	367.41	NA	2	24	9	56	c	n	384.42	1	1000	1000	0	1
169	3	43	?	N	d	402.19	NA	9	24	3	56	i	n	1487.65	0	100	100	0	0
169	3	44	?	N	d	920.06	NA	9	56	2	24	c	j	785.93	1	100	100	0	1
169	3	45	?	P	f	286.36	NA	8	56	3	24	c	j	533.92	1	1000	1000	0	0
169	3	46	?	N	d	986.96	NA	9	24	4	56	i	n	1003.61	0	100	1000	0	0
169	3	47	?	N	d	1804.56	NA	2	24	8	56	c	n	502.69	1	100	1000	0	1
169	3	48	?	N	d	1487.32	NA	9	56	3	24	c	j	686.72	1	100	1000	0	0
169	3	49	?	P	f	1153.77	NA	4	24	7	56	c	n	637.17	1	1000	100	0	0
169	3	50	?	P	f	436.52	NA	2	24	7	56	c	n	502.8	1	1000	1000	0	0
169	3	51	?	P	f	2169.5	NA	9	56	4	24	c	j	619.76	1	100	1000	0	0
169	3	52	?	P	f	486.32	NA	9	56	3	24	c	j	553.29	1	1000	1000	0	0
169	3	53	?	P	f	753.64	NA	7	24	4	56	i	j	769.59	0	1000	100	0	0
169	3	54	?	N	d	1754.64	NA	3	56	9	24	i	j	1270.36	0	100	1000	0	1
169	3	55	?	N	d	1286.54	NA	9	24	4	56	i	n	503.06	0	100	100	0	1
169	3	56	?	N	d	953.88	NA	9	24	3	56	i	n	518.94	0	100	1000	0	1
169	3	57	?	N	d	1186.97	NA	2	24	8	56	c	n	453.3	1	100	1000	0	1
169	3	58	?	N	d	1069.86	NA	8	56	3	24	c	j	536.12	1	100	100	0	0
169	3	59	?	P	f	283.91	NA	4	56	7	24	i	n	586.66	0	1000	100	0	0
169	3	60	?	P	f	403.13	NA	9	24	2	56	i	j	486.76	0	1000	1000	0	1
169	3	61	?	N	d	86.2	NA	4	56	9	24	i	j	737.21	0	1000	100	0	1
169	3	62	?	P	f	403.21	NA	2	56	9	24	i	n	668.91	0	100	100	0	1
169	3	63	?	N	d	19.25	NA	8	24	4	56	i	n	569.97	0	1000	1000	0	1
169	3	64	?	P	f	19.24	NA	2	24	8	56	c	n	453.63	1	1000	100	0	1
169	3	65	?	N	d	19.24	NA	4	56	7	24	i	j	419.69	0	1000	1000	0	0
169	4	1	?	N	d	436.31	NA	2	24	7	56	c	n	402.97	1	1000	1000	-1	0
169	4	2	?	N	d	336.27	NA	3	24	9	56	c	n	419.95	1	100	100	0	0
169	4	3	?	N	d	336.14	NA	9	24	4	56	i	n	987.06	0	100	1000	0	0
169	4	4	?	P	f	252.81	NA	2	56	9	24	i	n	453.23	0	1000	1000	0	1
169	4	5	?	P	f	436.48	NA	3	56	7	24	i	j	453.14	1	1000	1000	0	1
169	4	6	?	P	f	736.53	NA	4	56	9	24	i	n	670.63	0	100	100	0	0
169	4	7	?	P	f	19.66	NA	8	56	3	24	c	j	636.7	1	1000	100	0	1
169	4	8	?	P	f	1153.97	NA	8	56	2	24	c	j	483.65	1	100	100	0	0
169	4	9	?	P	f	186.25	NA	4	56	8	24	i	n	519.62	0	1000	100	0	0
169	4	10	?	P	f	1053.66	NA	7	56	3	24	c	j	736.78	1	100	1000	0	1
169	4	11	?	P	f	1971.45	NA	8	56	2	24	c	j	520.19	1	100	100	0	0
169	4	12	?	P	f	352.93	NA	4	24	9	56	c	n	420.05	1	1000	1000	0	0
169	4	13	?	P	f	453.24	NA	7	24	2	56	i	j	669.18	0	1000	1000	0	0
169	4	14	?	P	f	352.92	NA	3	24	9	56	c	n	453.75	1	1000	100	0	1
169	4	15	?	P	f	786.93	NA	4	24	7	56	c	n	736.38	1	100	100	0	0
169	4	16	?	P	f	119.26	NA	9	24	3	56	i	j	602.39	0	1000	1000	0	0
169	4	17	?	N	d	1103.92	NA	4	56	9	24	i	j	784.89	0	100	1000	0	1
169	4	18	?	N	d	1587.41	NA	2	24	8	56	c	n	469.9	1	100	100	0	1
169	4	19	?	N	d	1521.44	NA	9	56	4	24	c	j	719.87	1	100	1000	0	0
169	4	20	?	N	d	1570.98	NA	2	56	8	24	i	n	769.94	1	100	1000	0	0
169	4	21	?	N	d	619.31	NA	8	56	4	24	c	j	602.92	1	1000	1000	0	0
169	4	22	?	N	d	1588.04	NA	3	56	7	24	i	j	603.32	0	100	100	0	0
169	4	23	?	N	d	319.81	NA	4	56	7	24	i	j	568.92	0	1000	1000	0	1
169	4	24	?	P	f	68.98	NA	3	24	7	56	c	n	485.74	1	1000	100	0	1
169	4	25	?	P	f	169.18	NA	8	24	2	56	i	j	736.62	0	1000	100	0	0
169	4	26	?	P	f	319.72	NA	9	56	3	24	c	j	1187.46	1	100	100	0	1
169	4	27	?	P	f	368.83	NA	7	56	2	24	c	j	453.23	1	100	1000	0	0
169	4	28	?	P	f	85.41	NA	9	24	3	56	i	j	653.03	0	1000	100	0	0
169	4	29	?	N	d	369.08	NA	2	56	7	24	i	j	669.38	0	100	100	0	1
169	4	30	?	N	d	68.88	NA	4	56	8	24	i	j	536.98	0	1000	100	0	1
169	4	31	?	P	f	2.71	NA	2	56	8	24	i	j	600.76	1	1000	100	0	1
169	4	32	?	P	f	1187.3	NA	4	24	8	56	c	n	886.67	1	100	100	0	0
169	4	33	?	P	f	219.42	NA	9	56	3	24	c	j	436.2	1	1000	100	0	0
169	4	34	?	N	d	352.99	NA	2	56	7	24	i	j	552.75	0	100	100	0	0
169	4	35	?	P	f	852.86	NA	8	24	4	56	i	j	484.28	0	100	100	0	1
169	4	36	?	N	d	152.79	NA	7	56	3	24	c	j	419.58	1	1000	1000	0	1
169	4	37	?	P	f	403.12	NA	7	24	4	56	i	n	452.82	1	1000	1000	0	0
169	4	38	?	N	d	52.28	NA	8	24	2	56	i	j	603.48	1	1000	100	0	0
169	4	39	?	N	d	1221.34	NA	3	24	8	56	c	j	586.51	0	100	1000	0	0
169	4	40	?	N	d	1370.41	NA	8	24	4	56	i	n	1452.32	0	100	100	0	1
169	4	41	?	P	f	1420.79	NA	7	56	2	24	c	j	637.22	1	100	1000	0	1
169	4	42	?	P	f	269.68	NA	4	24	7	56	c	j	587.01	0	1000	100	0	0
169	4	43	?	P	f	100.34	NA	7	56	3	24	c	j	620.04	1	1000	100	0	1
169	4	44	?	P	f	2722.21	NA	4	56	9	24	i	n	837.12	0	100	100	0	0
169	4	45	?	P	f	436.61	NA	2	56	8	24	i	n	519.6	0	1000	100	0	1
169	4	46	?	P	f	168.94	NA	7	24	4	56	i	j	602.53	0	1000	100	0	1
169	4	47	?	P	f	169.75	NA	2	24	7	56	c	n	533.37	1	1000	1000	0	1
169	4	48	?	P	f	1037.21	NA	4	56	7	24	i	n	553.6	0	100	100	0	0
169	4	49	?	N	d	1236.96	NA	2	24	8	56	c	n	503.66	1	100	1000	0	1
169	4	50	?	N	d	36.22	NA	8	56	3	24	c	j	470.38	1	1000	1000	0	0
169	4	51	?	N	d	1170.37	NA	2	56	7	24	i	n	519.79	1	100	1000	0	0
169	4	52	?	N	d	1337.48	NA	8	24	3	56	i	n	1603.78	0	100	1000	0	0
169	4	53	?	N	d	1721.14	NA	7	24	4	56	i	j	1020.49	1	100	1000	0	1
169	4	54	?	N	d	119.27	NA	8	24	3	56	i	n	769.5	0	1000	1000	0	0
169	4	55	?	N	d	2305.38	NA	2	24	9	56	c	n	486.45	1	1000	1000	0	1
169	4	56	?	P	f	1120.51	NA	7	56	3	24	c	j	1088.21	1	100	100	0	0
169	4	57	?	P	f	1204.01	NA	8	24	4	56	i	n	653.56	1	100	1000	0	0
169	4	58	?	P	f	203.26	NA	2	24	8	56	c	n	1337.05	1	1000	100	0	0
169	4	59	?	N	d	1070.56	NA	8	56	3	24	c	j	436.26	1	1000	1000	0	0
169	4	60	?	P	f	252.97	NA	2	56	8	24	i	n	603.69	0	1000	1000	0	0
169	4	61	?	P	f	1588.09	NA	4	24	8	56	c	n	617.51	1	1000	1000	0	1
169	4	62	?	P	f	1303.44	NA	2	56	8	24	i	n	536.4	0	100	1000	0	0
169	4	63	?	N	d	152.52	NA	9	56	4	24	c	j	520.61	1	1000	100	0	1
169	4	64	?	N	d	469.71	NA	2	24	8	56	c	n	467.74	1	100	1000	0	0
169	4	65	?	N	d	770.29	NA	3	24	8	56	c	n	453.56	1	100	1000	0	0
169	5	1	?	P	f	853.06	NA	7	56	2	24	c	j	1004.75	1	1000	1000	-1	0
169	5	2	?	P	f	519.66	NA	4	24	9	56	c	n	469.53	1	1000	100	0	0
169	5	3	?	P	f	269.55	NA	7	24	3	56	i	j	700.78	0	100	100	0	0
169	5	4	?	N	d	386.43	NA	7	56	2	24	c	j	770.08	1	1000	100	0	1
169	5	5	?	N	d	419.82	NA	9	24	3	56	i	n	419.81	0	100	1000	0	0
169	5	6	?	N	d	236.18	NA	9	56	2	24	c	j	369.32	1	100	1000	0	1
169	5	7	?	P	f	353.21	NA	7	24	3	56	i	j	586.11	0	1000	1000	0	0
169	5	8	?	P	f	386.22	NA	2	24	8	56	c	n	436.51	1	100	100	0	1
169	5	9	?	N	d	569.34	NA	4	24	7	56	c	n	402.57	1	100	1000	0	0
169	5	10	?	N	d	235.97	NA	3	56	7	24	i	j	435.97	0	100	100	0	0
169	5	11	?	N	d	836.95	NA	4	56	7	24	i	j	419.5	0	1000	1000	0	1
169	5	12	?	P	f	302.25	NA	7	56	2	24	c	j	386.39	1	1000	100	0	1
169	5	13	?	P	f	469.54	NA	3	24	7	56	c	n	419.53	1	1000	100	0	0
169	5	14	?	P	f	302.49	NA	2	56	8	24	i	n	719.73	0	100	1000	0	0
169	5	15	?	N	d	1253.9	NA	7	24	4	56	i	n	717.97	0	100	100	0	1
169	5	16	?	N	d	519.14	NA	2	56	8	24	i	j	437.11	0	100	100	0	1
169	5	17	?	N	d	269.25	NA	9	56	3	24	c	j	469.58	1	100	1000	0	1
169	5	18	?	P	f	335.97	NA	7	56	4	24	c	j	452.61	1	100	100	0	0
169	5	19	?	P	f	318.71	NA	9	56	2	24	c	j	486.34	1	100	1000	0	0
169	5	20	?	P	f	302.56	NA	3	24	9	56	c	n	570.09	1	100	100	0	0
169	5	21	?	P	f	185.98	NA	4	56	7	24	i	j	553.83	1	1000	1000	0	0
169	5	22	?	N	d	920.79	NA	8	56	2	24	c	j	453.38	1	100	100	0	0
169	5	23	?	N	d	452.77	NA	9	56	4	24	c	j	403.4	1	100	1000	0	0
169	5	24	?	N	d	452.48	NA	2	24	8	56	c	n	586.57	1	100	1000	0	0
169	5	25	?	N	d	403.13	NA	4	24	8	56	c	n	400.48	1	1000	1000	0	0
169	5	26	?	P	f	353.14	NA	9	56	3	24	c	j	501.05	1	1000	1000	0	0
169	5	27	?	P	f	420.15	NA	9	24	4	56	i	n	602.53	1	1000	100	0	0
169	5	28	?	P	f	620.29	NA	7	24	3	56	i	j	553.15	0	100	1000	0	0
169	5	29	?	P	f	319.67	NA	9	56	4	24	c	j	770.28	1	1000	1000	0	1
169	5	30	?	N	d	183.98	NA	8	24	2	56	i	n	736.42	0	1000	1000	0	0
169	5	31	?	P	f	202.77	NA	9	56	4	24	c	j	436.3	1	1000	1000	0	1
169	5	32	?	N	d	219.58	NA	2	56	7	24	i	j	2.78	0	1000	100	0	0
169	5	33	?	N	d	1771.15	NA	4	24	9	56	c	n	553.54	1	100	1000	0	1
169	5	34	?	N	d	286.25	NA	2	24	7	56	c	n	503.68	1	1000	100	0	0
169	5	35	?	N	d	252.69	NA	9	56	3	24	c	j	520.17	1	100	100	0	0
169	5	36	?	P	f	102.68	NA	7	56	4	24	c	j	687.2	1	1000	100	0	0
169	5	37	?	N	d	67.18	NA	3	56	8	24	i	j	602.81	0	1000	1000	0	0
169	5	38	?	P	f	302.91	NA	2	56	7	24	i	n	920.46	0	1000	100	0	1
169	5	39	?	N	d	335.94	NA	4	56	7	24	i	j	703.09	0	100	1000	0	1
169	5	40	?	P	f	19.32	NA	9	24	2	56	i	j	703.49	0	1000	1000	0	1
169	5	41	?	N	d	1053.83	NA	3	24	9	56	c	n	486.27	1	100	100	0	1
169	5	42	?	N	d	285.92	NA	4	56	7	24	i	j	369.49	0	1000	100	0	0
169	5	43	?	P	f	686.82	NA	2	56	7	24	i	n	769.2	0	100	100	0	1
169	5	44	?	P	f	219.09	NA	3	24	7	56	c	n	386.08	1	1000	1000	0	1
169	5	45	?	N	d	503.02	NA	8	24	4	56	i	j	937.21	1	1000	1000	0	0
169	5	46	?	N	d	319.06	NA	9	56	3	24	c	j	536.56	1	1000	100	0	0
169	5	47	?	N	d	419.81	NA	2	24	9	56	c	n	469.67	1	1000	1000	0	0
169	5	48	?	N	d	336.12	NA	4	56	7	24	i	j	953.11	0	100	1000	0	0
169	5	49	?	P	f	419.73	NA	3	56	7	24	i	j	683.86	1	1000	100	0	1
169	5	50	?	P	f	586.77	NA	8	56	4	24	c	j	486.19	1	100	100	0	0
169	5	51	?	P	f	386.38	NA	3	24	8	56	c	j	600.94	0	100	1000	0	0
169	5	52	?	P	f	1387.45	NA	4	56	9	24	i	n	720.57	0	100	1000	0	1
169	5	53	?	P	f	302.48	NA	3	56	8	24	i	n	452.48	0	100	1000	0	1
169	5	54	?	P	f	152.16	NA	4	24	7	56	c	n	436.2	1	1000	100	0	1
169	5	55	?	N	d	102.48	NA	9	24	3	56	i	n	453.22	0	1000	100	0	0
169	5	56	?	N	d	2.68	NA	8	24	4	56	i	j	336.71	1	100	100	0	1
169	5	57	?	P	f	19.29	NA	7	24	3	56	i	j	286.41	0	1000	100	0	0
169	5	58	?	P	f	102.62	NA	8	24	4	56	i	n	352.66	1	100	1000	0	1
169	5	59	?	N	d	319.36	NA	2	24	7	56	c	n	169.19	1	100	100	0	0
169	5	60	?	P	f	202.93	NA	3	56	8	24	i	j	303.27	1	1000	1000	0	0
169	5	61	?	N	d	903.83	NA	8	24	2	56	i	n	2021.4	0	1000	100	0	0
169	5	62	?	N	d	252.69	NA	9	24	3	56	i	n	719.99	0	100	100	0	1
169	5	63	?	N	d	335.79	NA	7	56	4	24	c	j	537.71	1	1000	1000	0	1
169	5	64	?	N	d	302.87	NA	3	24	7	56	c	n	553.62	1	1000	1000	0	0
169	5	65	?	P	f	1304.04	NA	7	24	2	56	i	j	686.77	0	100	100	0	0
169	6	1	?	P	f	1103.92	NA	9	24	4	56	i	j	620.72	0	100	100	-1	0
169	6	2	?	P	f	202.91	NA	7	56	3	24	c	j	469.27	1	1000	100	0	1
169	6	3	?	P	f	252.88	NA	7	24	4	56	i	n	469.34	1	1000	100	0	0
169	6	4	?	P	f	102.8	NA	3	56	9	24	i	j	552.57	1	1000	100	0	0
169	6	5	?	N	d	1287.1	NA	2	24	7	56	c	n	402.88	1	100	100	0	0
169	6	6	?	N	d	1086.68	NA	4	56	8	24	i	j	502.72	0	100	1000	0	0
169	6	7	?	N	d	218.96	NA	8	56	3	24	c	j	236.28	1	1000	100	0	1
169	6	8	?	N	d	917.67	NA	7	56	4	24	c	j	118.74	1	100	100	0	0
169	6	9	?	N	d	302.29	NA	9	56	2	24	c	n	233.68	0	100	1000	0	0
169	6	10	?	N	d	353.18	NA	9	24	4	56	i	j	268.77	1	100	100	0	1
169	6	11	?	N	d	586.59	NA	7	56	2	24	c	j	3.15	1	100	100	0	0
169	6	12	?	N	d	221.86	NA	7	24	3	56	i	j	353.01	1	1000	1000	0	0
169	6	13	?	P	f	671.9	NA	2	56	7	24	i	j	2.83	1	1000	1000	0	0
169	6	14	?	P	f	152.91	NA	4	24	8	56	c	n	769.67	1	100	1000	0	0
169	6	15	?	N	d	520.06	NA	3	56	7	24	i	j	634.49	0	1000	1000	0	0
169	6	16	?	P	f	269.94	NA	9	24	2	56	i	n	650.73	1	1000	1000	0	1
169	6	17	?	N	d	903.81	NA	7	24	3	56	i	n	687.27	0	1000	100	0	0
169	6	18	?	P	f	152.23	NA	2	24	7	56	c	n	435.88	1	1000	1000	0	1
169	6	19	?	N	d	753.7	NA	4	56	9	24	i	j	553.06	0	100	100	0	0
169	6	20	?	P	f	69.27	NA	2	24	8	56	c	n	403.47	1	1000	1000	0	1
169	6	21	?	N	d	503.12	NA	4	24	7	56	c	n	670.0	1	1000	1000	0	0
169	6	22	?	P	f	286.57	NA	9	24	2	56	i	n	786.65	1	1000	100	0	0
169	6	23	?	N	d	1404.15	NA	9	24	4	56	i	n	2305.43	0	100	100	0	0
169	6	24	?	P	f	269.49	NA	3	24	8	56	c	n	737.13	1	1000	1000	0	1
169	6	25	?	N	d	453.12	NA	8	24	2	56	i	n	1087.13	0	1000	1000	0	0
169	6	26	?	P	f	653.4	NA	8	56	4	24	c	j	469.51	1	1000	100	0	1
169	6	27	?	N	d	753.68	NA	3	56	8	24	i	n	620.27	1	100	1000	0	0
169	6	28	?	N	d	836.57	NA	4	24	7	56	c	n	1270.63	1	100	100	0	0
169	6	29	?	P	f	52.51	NA	7	56	2	24	c	j	402.49	1	1000	1000	0	0
169	6	30	?	N	d	1020.63	NA	4	24	9	56	c	n	502.46	1	100	100	0	0
169	6	31	?	P	f	503.08	NA	3	56	8	24	i	n	2522.82	0	1000	1000	0	0
169	6	32	?	P	f	319.94	NA	2	24	9	56	c	n	1003.16	1	1000	100	0	1
169	6	33	?	N	d	953.76	NA	3	56	8	24	i	j	719.81	0	100	1000	0	0
169	6	34	?	N	d	1036.96	NA	4	56	9	24	i	j	669.75	0	100	1000	0	1
169	6	35	?	P	f	936.58	NA	8	24	2	56	i	n	703.42	1	100	100	0	1
169	6	36	?	P	f	1286.87	NA	3	56	7	24	i	n	870.87	0	100	1000	0	0
169	6	37	?	N	d	52.56	NA	8	56	2	24	c	j	369.62	1	1000	1000	0	1
169	6	38	?	N	d	202.78	NA	8	24	3	56	i	n	520.25	0	1000	100	0	0
169	6	39	?	P	f	553.41	NA	2	24	7	56	c	n	687.27	1	1000	100	0	1
169	6	40	?	P	f	1187.31	NA	9	24	3	56	i	j	736.9	0	100	100	0	0
169	6	41	?	P	f	1353.57	NA	4	56	9	24	i	n	584.46	0	100	1000	0	1
169	6	42	?	P	f	186.18	NA	2	56	7	24	i	n	653.11	0	1000	100	0	1
169	6	43	?	P	f	853.31	NA	3	24	7	56	c	n	450.36	1	100	1000	0	1
169	6	44	?	P	f	1070.24	NA	2	56	7	24	i	n	385.81	0	100	1000	0	0
169	6	45	?	P	f	1137.38	NA	3	24	7	56	c	n	536.43	1	100	1000	0	1
169	6	46	?	N	d	52.6	NA	2	56	9	24	i	n	537.1	1	1000	100	0	0
169	6	47	?	N	d	803.59	NA	7	24	3	56	i	n	703.72	0	100	100	0	0
169	6	48	?	N	d	86.26	NA	8	56	2	24	c	j	520.1	1	1000	100	0	1
169	6	49	?	N	d	236.27	NA	3	24	9	56	c	n	435.92	1	1000	100	0	0
169	6	50	?	N	d	150.67	NA	4	56	9	24	i	j	669.34	0	1000	1000	0	0
169	6	51	?	N	d	552.79	NA	3	56	7	24	i	j	1937.76	0	1000	1000	0	1
169	6	52	?	P	f	1017.77	NA	8	56	4	24	c	n	102.07	0	100	1000	0	1
169	6	53	?	N	d	36.07	NA	8	56	3	24	c	n	85.45	0	100	100	0	1
169	6	54	?	P	f	55.39	NA	8	24	4	56	i	j	85.29	0	1000	100	0	1
169	6	55	?	N	d	138.08	NA	9	24	3	56	i	n	621.64	0	100	1000	0	1
169	6	56	?	N	d	837.15	NA	2	56	8	24	i	n	86.94	1	100	100	0	1
169	6	57	?	P	f	855.38	NA	8	56	4	24	c	n	386.9	0	1000	1000	0	0
169	6	58	?	N	d	1170.97	NA	3	24	8	56	c	n	770.05	1	100	100	0	1
169	6	59	?	N	d	772.27	NA	8	24	4	56	i	j	589.16	1	100	100	0	0
169	6	60	?	N	d	553.58	NA	9	56	2	24	c	n	453.71	0	1000	1000	0	0
169	6	61	?	N	d	1571.76	NA	8	56	4	24	c	n	286.67	0	100	100	0	1
169	6	62	?	N	d	620.0	NA	3	24	9	56	c	n	402.81	1	1000	100	0	1
169	6	63	?	P	f	1504.05	NA	7	56	4	24	c	j	1220.36	1	100	1000	0	0
169	6	64	?	P	f	720.34	NA	2	24	9	56	c	j	335.97	0	100	1000	0	0
169	6	65	?	P	f	737.09	NA	7	56	3	24	c	j	419.72	1	100	1000	0	1
