subj	block	trial	task_cue	task	choice_resp	choiceRT	choice_acc	topnum	topsize	botnum	botsize	cong	task_resp	taskRT	task_acc	RSI	CSI	altRep	E1
172	1	1	N	N	f	1023.6	0	9	56	3	24	c	j	867.52	1	100	1000	-1	0
172	1	2	P	P	d	839.51	1	4	56	7	24	i	j	1125.62	1	100	1000	1	0
172	1	3	P	P	d	823.63	1	7	56	2	24	c	j	1228.94	1	1000	100	0	0
172	1	4	P	P	d	826.86	1	3	56	8	24	i	j	1300.03	1	1000	100	0	0
172	1	5	P	P	d	1574.27	1	7	56	4	24	c	j	676.05	1	100	1000	0	0
172	1	6	N	N	f	1253.45	0	2	24	8	56	c	n	842.73	1	100	100	1	0
172	1	7	P	P	d	824.31	1	8	56	4	24	c	j	710.53	1	1000	1000	1	0
172	1	8	N	N	f	972.78	0	9	24	2	56	i	j	1316.96	1	1000	100	1	0
172	1	9	N	N	f	990.4	0	9	56	3	24	c	j	756.7	1	100	100	0	0
172	1	10	P	P	d	574.15	1	9	24	4	56	i	n	519.7	1	1000	1000	1	0
172	1	11	N	N	f	1009.77	0	3	56	9	24	i	n	1062.49	1	1000	100	1	0
172	1	12	N	N	f	895.25	0	4	24	7	56	c	n	783.51	1	1000	100	0	0
172	1	13	N	N	f	742.66	0	8	56	2	24	c	j	1331.94	1	1000	100	0	0
172	1	14	P	P	d	683.31	1	3	24	8	56	c	n	597.17	1	1000	100	1	0
172	1	15	N	N	f	863.54	0	9	56	2	24	c	j	615.49	1	1000	1000	1	0
172	1	16	P	P	d	854.36	1	3	24	7	56	c	n	528.81	1	100	100	1	0
172	1	17	N	N	f	884.73	0	9	56	4	24	c	j	591.7	1	100	1000	1	0
172	1	18	P	P	d	1511.29	1	7	24	2	56	i	n	456.28	1	100	100	1	0
172	1	19	N	N	f	585.31	0	3	24	9	56	c	n	942.4	1	1000	1000	1	0
172	1	20	P	P	d	620.84	1	8	24	2	56	i	n	1508.01	1	1000	100	1	0
172	1	21	P	P	d	665.45	1	8	24	4	56	i	n	561.58	1	100	1000	0	0
172	1	22	N	N	f	850.38	0	2	56	9	24	i	n	1531.06	1	100	1000	1	0
172	1	23	P	P	d	1008.96	1	9	24	3	56	i	n	937.14	1	100	1000	1	0
172	1	24	N	N	f	578.52	0	7	24	2	56	i	j	952.41	1	100	100	1	0
172	1	25	N	N	f	975.78	0	4	56	7	24	i	n	1387.52	1	100	1000	0	0
172	1	26	N	N	f	897.62	0	8	24	3	56	i	j	997.87	1	1000	1000	0	0
172	1	27	N	N	f	774.82	0	9	56	2	24	c	j	543.21	1	100	1000	0	0
172	1	28	N	N	f	1173.62	0	3	24	8	56	c	n	744.31	1	1000	1000	0	0
172	1	29	P	P	d	747.74	1	4	56	7	24	i	j	1256.93	1	1000	1000	1	0
172	1	30	N	N	f	777.94	0	3	56	9	24	i	n	1120.71	1	100	100	1	0
172	1	31	N	N	f	842.78	0	9	24	2	56	i	j	824.85	1	100	1000	0	0
172	1	32	N	N	f	678.35	0	4	24	8	56	c	n	703.69	1	100	100	0	0
172	1	33	N	N	f	471.04	0	8	24	3	56	i	j	708.71	1	1000	100	0	0
172	1	34	N	N	f	639.4	0	4	24	7	56	c	n	653.57	1	100	1000	0	0
172	1	35	N	N	f	695.13	0	7	56	3	24	c	j	557.9	1	1000	1000	0	0
172	1	36	P	P	d	733.05	1	2	24	8	56	c	n	877.89	1	1000	1000	1	0
172	1	37	N	N	f	713.42	0	4	24	7	56	c	n	796.4	1	1000	100	1	0
172	1	38	P	P	d	760.86	1	2	56	7	24	i	j	523.77	1	1000	100	1	0
172	1	39	P	P	d	903.41	1	8	24	3	56	i	n	1100.93	1	100	100	0	0
172	1	40	P	P	d	562.22	1	2	56	9	24	i	j	659.98	1	1000	1000	0	0
172	1	41	P	P	d	972.28	1	4	56	8	24	i	j	697.8	1	100	100	0	0
172	1	42	P	P	d	594.22	1	9	56	2	24	c	j	567.97	1	1000	1000	0	0
172	1	43	P	P	d	895.43	1	4	24	9	56	c	n	501.23	1	1000	1000	0	0
172	1	44	P	P	d	535.72	1	2	24	7	56	c	n	605.47	1	1000	100	0	0
172	1	45	N	N	f	799.69	0	4	24	8	56	c	n	709.14	1	100	1000	1	0
172	1	46	P	P	d	982.88	1	7	56	3	24	c	j	516.49	1	100	1000	1	0
172	1	47	P	P	d	731.34	1	2	24	9	56	c	n	571.98	1	100	1000	0	0
172	1	48	N	N	f	776.83	0	8	56	3	24	c	j	692.44	1	100	100	1	0
172	1	49	P	P	d	1386.45	1	8	56	4	24	c	j	1583.78	1	1000	100	1	0
172	1	50	N	N	f	675.3	0	7	56	2	24	c	j	633.21	1	1000	100	1	0
172	1	51	P	P	d	900.78	1	3	24	7	56	c	n	462.35	1	100	1000	1	0
172	1	52	P	P	d	1063.83	1	7	24	4	56	i	n	548.58	1	1000	100	0	0
172	1	53	P	P	d	876.38	1	8	24	2	56	i	n	611.74	1	1000	1000	0	0
172	1	54	P	P	d	772.23	1	4	24	9	56	c	n	552.12	1	100	100	0	0
172	1	55	N	N	f	378.47	0	9	24	3	56	i	j	940.84	1	1000	1000	1	0
172	1	56	P	P	d	1127.25	1	9	56	2	24	c	j	545.16	1	100	100	1	0
172	1	57	P	P	d	907.8	1	8	56	3	24	c	j	1364.12	1	100	100	0	0
172	1	58	P	P	d	548.9	1	2	56	7	24	i	j	685.01	1	100	1000	0	0
172	1	59	N	N	f	604.39	0	8	24	4	56	i	j	1472.82	1	100	1000	1	0
172	1	60	N	N	f	799.0	0	3	56	9	24	i	n	652.19	1	100	100	0	0
172	1	61	N	N	f	727.6	0	2	56	9	24	i	n	1231.62	1	1000	1000	0	0
172	1	62	P	P	d	899.12	1	4	56	8	24	i	j	606.69	1	100	100	1	0
172	1	63	N	N	f	1216.07	0	3	56	9	24	i	n	932.39	1	1000	1000	1	0
172	1	64	N	N	f	741.69	0	2	56	7	24	i	n	520.63	1	1000	100	0	0
172	1	65	N	N	f	562.37	0	7	24	4	56	i	j	727.72	1	100	100	0	0
172	2	1	N	N	f	1097.24	0	3	56	9	24	i	n	649.07	1	1000	1000	-1	0
172	2	2	P	P	d	684.48	1	9	56	4	24	c	j	739.41	1	1000	100	1	0
172	2	3	P	P	d	618.98	1	2	56	7	24	i	j	1730.6	1	1000	100	0	0
172	2	4	N	N	f	502.25	0	3	24	8	56	c	n	896.66	1	1000	1000	1	0
172	2	5	P	P	d	1381.18	1	9	24	4	56	i	n	525.05	1	100	1000	1	0
172	2	6	P	P	d	656.23	1	2	24	7	56	c	n	1102.81	1	1000	1000	0	0
172	2	7	N	N	f	616.96	0	9	56	3	24	c	j	630.97	1	100	100	1	0
172	2	8	N	N	f	897.44	0	2	56	7	24	i	n	751.32	1	1000	100	0	0
172	2	9	N	N	f	536.68	0	8	24	3	56	i	j	640.27	1	100	100	0	0
172	2	10	P	P	d	575.44	1	4	24	7	56	c	n	1264.27	1	1000	100	1	0
172	2	11	P	P	d	1481.69	1	9	24	2	56	i	n	1335.45	1	1000	1000	0	0
172	2	12	P	P	d	997.75	1	3	24	7	56	c	n	482.38	1	100	100	0	0
172	2	13	P	P	d	652.43	1	2	56	9	24	i	j	537.16	1	100	1000	0	0
172	2	14	N	N	f	562.23	0	3	24	9	56	c	n	636.8	1	100	1000	1	0
172	2	15	P	P	d	1651.69	1	8	24	2	56	i	n	765.65	1	1000	100	1	0
172	2	16	P	P	d	1057.87	1	8	56	4	24	c	j	417.98	1	100	1000	0	0
172	2	17	N	N	f	772.4	0	8	56	2	24	c	j	888.69	1	1000	1000	1	0
172	2	18	P	P	d	1045.65	1	3	56	9	24	i	j	1830.33	1	1000	100	1	0
172	2	19	P	P	d	1098.26	1	4	56	9	24	i	j	550.45	1	100	100	0	0
172	2	20	N	N	f	956.72	0	3	56	8	24	i	n	1126.88	1	1000	100	1	0
172	2	21	P	P	d	701.87	1	2	24	7	56	c	n	1346.91	1	100	1000	1	0
172	2	22	P	P	d	1188.92	1	9	24	4	56	i	n	573.76	1	100	1000	0	0
172	2	23	N	N	f	711.18	0	8	24	3	56	i	j	657.91	1	100	1000	1	0
172	2	24	N	N	f	1285.04	0	9	56	4	24	c	j	1081.15	1	1000	1000	0	0
172	2	25	N	N	f	1256.66	0	8	56	3	24	c	j	687.55	1	1000	100	0	0
172	2	26	N	N	f	680.49	0	4	56	8	24	i	n	953.56	1	100	1000	0	0
172	2	27	N	N	f	819.57	0	7	56	2	24	c	j	628.31	1	100	100	0	0
172	2	28	N	N	f	703.25	0	4	24	7	56	c	n	560.71	1	1000	1000	0	0
172	2	29	P	P	d	777.26	1	3	24	8	56	c	n	1175.57	1	100	100	1	0
172	2	30	N	N	f	396.27	0	8	56	4	24	c	j	526.59	1	1000	100	1	0
172	2	31	P	P	d	679.13	1	2	56	8	24	i	j	1164.9	1	1000	1000	1	0
172	2	32	P	P	d	616.59	1	9	24	3	56	i	n	462.09	1	1000	100	0	0
172	2	33	P	P	d	649.34	1	2	24	9	56	c	n	505.31	1	100	1000	0	0
172	2	34	N	N	f	720.37	0	3	56	7	24	i	n	1336.52	1	1000	1000	1	0
172	2	35	P	P	d	1111.8	1	8	24	2	56	i	n	782.6	1	100	100	1	0
172	2	36	N	N	f	1114.0	0	7	56	3	24	c	j	694.39	1	100	1000	1	0
172	2	37	P	P	d	899.38	1	7	24	4	56	i	n	742.12	1	1000	1000	1	0
172	2	38	P	P	d	577.79	1	8	56	3	24	c	j	838.91	1	100	100	0	0
172	2	39	N	N	f	652.67	0	7	24	2	56	i	n	988.8	0	100	100	1	0
172	2	40	P	P	d	932.62	1	3	24	7	56	c	n	572.71	1	1000	1000	1	1
172	2	41	N	N	f	1451.88	0	2	24	7	56	c	n	1599.58	1	1000	100	1	0
172	2	42	N	N	f	583.81	0	8	56	3	24	c	j	653.86	1	100	1000	0	0
172	2	43	P	P	d	707.66	1	4	56	8	24	i	j	565.5	1	100	100	1	0
172	2	44	P	P	d	943.45	1	7	56	3	24	c	j	489.01	1	1000	100	0	0
172	2	45	N	N	f	710.89	0	2	56	9	24	i	n	984.22	1	100	100	1	0
172	2	46	N	N	f	967.99	0	3	56	7	24	i	n	1339.27	1	1000	1000	0	0
172	2	47	P	P	d	664.33	1	7	56	2	24	c	j	607.29	1	100	100	1	0
172	2	48	P	P	d	670.18	1	4	24	8	56	c	n	460.24	1	1000	100	0	0
172	2	49	N	N	f	1343.48	0	9	24	2	56	i	j	792.61	1	1000	100	1	0
172	2	50	N	N	f	577.14	0	8	24	3	56	i	j	1264.94	1	1000	1000	0	0
172	2	51	P	P	d	684.45	1	8	56	2	24	c	j	727.13	1	100	1000	1	0
172	2	52	P	P	d	859.54	1	3	56	9	24	i	j	578.2	1	1000	1000	0	0
172	2	53	P	P	d	1052.48	1	9	24	4	56	i	n	931.48	1	100	100	0	0
172	2	54	N	N	f	808.58	0	2	56	8	24	i	n	712.16	1	100	1000	1	0
172	2	55	N	N	f	1053.82	0	4	24	8	56	c	n	1483.47	1	100	100	0	0
172	2	56	P	P	d	808.86	1	9	56	2	24	c	j	498.2	1	1000	1000	1	0
172	2	57	P	P	d	1382.01	1	9	56	4	24	c	j	1201.31	1	1000	1000	0	0
172	2	58	N	N	f	731.49	0	7	24	3	56	i	j	1303.91	1	1000	1000	1	0
172	2	59	N	N	f	616.73	0	4	56	7	24	i	n	586.71	1	100	100	0	0
172	2	60	P	P	d	774.88	1	2	56	9	24	i	j	857.55	1	100	1000	1	0
172	2	61	N	N	f	1959.68	0	3	24	7	56	c	n	1117.66	1	100	100	1	0
172	2	62	N	N	f	642.04	0	2	24	7	56	c	n	959.47	1	100	1000	0	0
172	2	63	N	N	f	475.88	0	9	24	3	56	i	j	1108.57	1	1000	100	0	0
172	2	64	N	N	f	485.93	0	4	24	7	56	c	n	852.33	1	1000	100	0	0
172	2	65	N	N	f	638.84	0	9	24	2	56	i	j	698.04	1	100	1000	0	0
172	3	1	P	P	d	1265.55	1	2	24	9	56	c	n	1113.2	1	100	100	-1	0
172	3	2	N	N	f	647.4	0	9	24	4	56	i	j	1540.61	1	1000	100	1	0
172	3	3	P	P	d	1013.56	1	9	56	2	24	c	j	581.12	1	100	1000	1	0
172	3	4	N	N	f	639.73	0	8	56	4	24	c	j	923.29	1	1000	1000	1	0
172	3	5	N	N	f	664.62	0	3	24	9	56	c	n	504.85	1	100	1000	0	0
172	3	6	N	N	f	540.26	0	7	24	4	56	i	j	1363.01	1	100	100	0	0
172	3	7	N	N	f	592.81	0	9	56	3	24	c	j	881.47	1	100	1000	0	0
172	3	8	P	P	d	774.39	1	9	24	2	56	i	n	430.66	1	1000	100	1	0
172	3	9	N	N	f	829.43	0	4	24	7	56	c	n	772.2	1	1000	1000	1	0
172	3	10	P	P	d	686.77	1	3	56	8	24	i	j	1336.7	1	100	1000	1	0
172	3	11	P	P	d	667.16	1	2	56	8	24	i	j	947.15	1	100	100	0	0
172	3	12	N	N	f	610.49	0	8	56	3	24	c	j	1266.29	1	100	100	1	0
172	3	13	N	N	f	965.87	0	8	24	4	56	i	j	1529.32	1	1000	1000	0	0
172	3	14	N	N	f	568.27	0	3	24	9	56	c	n	1120.72	1	1000	1000	0	0
172	3	15	P	P	d	741.92	1	7	24	2	56	i	n	1072.18	1	100	1000	1	0
172	3	16	N	N	f	538.63	0	4	56	9	24	i	n	1081.24	1	1000	100	1	0
172	3	17	N	N	f	459.57	0	3	56	9	24	i	n	746.63	1	100	1000	0	0
172	3	18	N	N	f	536.91	0	2	24	8	56	c	n	955.62	1	100	100	0	0
172	3	19	N	N	f	731.29	0	4	56	8	24	i	n	1033.02	1	1000	100	0	0
172	3	20	P	P	d	820.49	1	9	56	3	24	c	j	1359.89	1	1000	1000	1	0
172	3	21	P	P	d	1206.67	1	9	56	2	24	c	j	1633.62	1	1000	100	0	0
172	3	22	P	P	d	776.0	1	8	24	4	56	i	n	498.99	1	100	1000	0	0
172	3	23	P	P	d	628.86	1	2	24	9	56	c	n	536.56	1	1000	100	0	0
172	3	24	N	N	f	605.79	0	8	24	4	56	i	j	777.1	1	100	1000	1	0
172	3	25	P	P	d	634.1	1	2	24	8	56	c	n	513.93	1	100	100	1	0
172	3	26	N	N	f	2046.01	0	3	56	8	24	i	n	848.25	1	1000	1000	1	0
172	3	27	P	P	d	572.66	1	2	24	8	56	c	n	462.15	1	100	1000	1	0
172	3	28	N	N	f	872.77	0	4	24	7	56	c	n	743.79	1	1000	100	1	0
172	3	29	P	P	d	477.46	1	2	56	8	24	i	j	512.34	1	1000	100	1	0
172	3	30	P	P	d	728.01	1	9	56	3	24	c	j	523.71	1	100	1000	0	0
172	3	31	P	P	d	788.8	1	7	24	4	56	i	n	462.27	1	1000	100	0	0
172	3	32	P	P	d	636.49	1	8	56	3	24	c	j	425.62	1	1000	1000	0	0
172	3	33	P	P	d	1241.16	1	4	56	9	24	i	j	485.89	1	1000	100	0	0
172	3	34	N	N	f	561.42	0	9	24	3	56	i	j	940.76	1	100	100	1	0
172	3	35	P	P	d	1937.2	1	7	56	2	24	c	j	459.34	1	100	100	1	0
172	3	36	P	P	d	464.72	1	9	24	4	56	i	n	369.26	1	1000	1000	0	0
172	3	37	P	P	d	662.29	1	3	24	7	56	c	n	604.41	1	100	100	0	0
172	3	38	P	P	d	494.69	1	4	24	9	56	c	n	511.81	1	100	1000	0	0
172	3	39	P	P	d	614.92	1	8	24	3	56	i	n	617.21	1	100	100	0	0
172	3	40	P	P	d	525.52	1	2	56	7	24	i	j	645.26	1	100	1000	0	0
172	3	41	N	N	f	612.99	0	9	24	3	56	i	j	593.13	1	1000	1000	1	0
172	3	42	P	P	d	1073.21	1	4	56	7	24	i	j	1216.86	1	100	100	1	0
172	3	43	P	P	d	1056.84	1	3	24	8	56	c	n	451.05	1	1000	1000	0	0
172	3	44	N	N	f	648.69	0	4	24	9	56	c	n	866.6	1	100	100	1	0
172	3	45	N	N	f	630.52	0	2	56	9	24	i	n	1201.72	1	100	100	0	0
172	3	46	P	P	d	715.59	1	4	24	9	56	c	n	472.29	1	1000	100	1	0
172	3	47	P	P	d	923.44	1	3	56	8	24	i	j	742.54	1	1000	1000	0	0
172	3	48	N	N	f	770.02	0	2	56	9	24	i	n	696.26	1	100	100	1	0
172	3	49	P	P	d	795.77	1	9	24	3	56	i	n	976.05	1	100	100	1	0
172	3	50	N	N	f	592.99	0	7	56	2	24	c	j	568.39	1	1000	100	1	0
172	3	51	N	N	f	648.87	0	9	56	3	24	c	j	889.2	1	100	100	0	0
172	3	52	N	N	f	640.59	0	8	24	4	56	i	j	970.11	1	1000	100	0	0
172	3	53	N	N	f	391.07	0	8	56	2	24	c	j	643.88	1	1000	1000	0	0
172	3	54	N	N	f	534.53	0	4	56	8	24	i	n	1092.18	1	1000	1000	0	0
172	3	55	N	N	f	509.63	0	7	24	3	56	i	j	1005.33	1	100	1000	0	0
172	3	56	P	P	d	663.33	1	4	56	8	24	i	j	468.92	1	1000	1000	1	0
172	3	57	N	N	f	560.56	0	8	56	2	24	c	j	691.28	1	100	1000	1	0
172	3	58	N	N	f	542.46	0	9	56	4	24	c	j	1129.36	1	1000	100	0	0
172	3	59	N	N	f	411.66	0	3	24	9	56	c	n	828.81	1	1000	100	0	0
172	3	60	P	P	d	681.0	1	7	56	2	24	c	j	606.29	1	1000	100	1	0
172	3	61	N	N	f	586.35	0	4	56	7	24	i	n	650.74	1	100	1000	1	0
172	3	62	P	P	d	585.48	1	2	24	9	56	c	n	434.91	1	1000	1000	1	0
172	3	63	N	N	f	1358.28	0	3	24	9	56	c	n	778.23	1	100	1000	1	0
172	3	64	P	P	d	1024.34	1	9	24	2	56	i	n	2049.16	1	1000	1000	1	0
172	3	65	P	P	d	730.35	1	9	56	4	24	c	j	1572.24	1	100	100	0	0
172	4	1	N	N	f	642.33	0	9	24	3	56	i	j	678.5	1	1000	1000	-1	0
172	4	2	N	N	d	614.7	0	4	56	8	24	i	n	932.19	1	100	1000	0	0
172	4	3	P	P	d	640.36	1	9	56	3	24	c	j	1419.09	1	100	1000	1	0
172	4	4	N	N	f	581.66	0	4	24	7	56	c	n	1292.55	1	100	1000	1	0
172	4	5	P	P	d	599.03	1	3	24	7	56	c	n	1495.25	1	1000	1000	1	0
172	4	6	N	N	f	590.22	0	4	56	9	24	i	n	687.35	1	1000	1000	1	0
172	4	7	P	P	d	686.2	1	9	56	2	24	c	j	527.25	1	100	100	1	0
172	4	8	P	P	d	1659.55	1	8	24	4	56	i	n	2028.09	1	100	1000	0	0
172	4	9	N	N	f	567.21	0	8	56	3	24	c	j	609.71	1	100	100	1	0
172	4	10	P	P	d	994.36	1	8	24	4	56	i	n	477.72	1	100	1000	1	0
172	4	11	N	N	f	624.65	0	7	56	2	24	c	j	1296.58	1	1000	1000	1	0
172	4	12	N	N	f	536.29	0	8	56	4	24	c	j	717.86	1	100	1000	0	0
172	4	13	N	N	f	395.46	0	3	24	9	56	c	n	558.65	1	100	100	0	0
172	4	14	P	P	d	634.31	1	2	56	8	24	i	j	530.26	1	100	100	1	0
172	4	15	N	N	d	1032.7	0	3	24	7	56	c	n	797.01	1	1000	1000	1	0
172	4	16	P	P	d	835.61	1	7	24	4	56	i	n	952.22	1	1000	1000	1	0
172	4	17	N	N	f	481.09	0	3	24	7	56	c	n	741.45	1	100	100	1	0
172	4	18	N	N	f	654.95	0	2	24	7	56	c	n	1056.7	1	1000	1000	0	0
172	4	19	N	N	f	653.53	0	7	24	3	56	i	j	1483.34	1	1000	100	0	0
172	4	20	N	N	f	574.07	0	8	56	2	24	c	j	812.95	1	100	100	0	0
172	4	21	N	N	f	480.93	0	7	24	3	56	i	j	762.4	1	100	1000	0	0
172	4	22	P	P	d	715.9	1	2	24	8	56	c	n	449.37	1	100	1000	1	0
172	4	23	N	N	f	562.39	0	3	24	9	56	c	n	581.77	1	1000	100	1	0
172	4	24	P	P	d	751.78	1	8	24	2	56	i	n	513.94	1	1000	100	1	0
172	4	25	N	N	f	819.27	0	3	56	8	24	i	n	627.3	1	1000	100	1	0
172	4	26	N	N	f	950.13	0	7	24	4	56	i	j	742.04	1	1000	1000	0	0
172	4	27	P	P	d	1089.44	1	7	56	3	24	c	j	461.55	1	1000	1000	1	0
172	4	28	P	P	d	816.73	1	8	56	2	24	c	j	607.45	1	100	1000	0	0
172	4	29	P	P	d	946.61	1	8	24	3	56	i	n	964.93	1	1000	100	0	0
172	4	30	P	P	d	494.19	1	9	56	2	24	c	j	523.85	1	100	100	0	0
172	4	31	P	P	d	496.0	1	3	56	9	24	i	j	491.91	1	1000	1000	0	0
172	4	32	P	P	d	543.93	1	4	56	8	24	i	j	466.47	1	100	1000	0	0
172	4	33	P	P	d	472.59	1	2	56	9	24	i	j	654.1	1	100	100	0	0
172	4	34	N	N	f	596.08	0	7	56	4	24	c	j	637.53	1	100	1000	1	0
172	4	35	P	P	d	831.43	1	3	24	7	56	c	n	483.04	1	100	100	1	0
172	4	36	N	N	f	596.94	0	2	56	9	24	i	n	626.62	1	100	1000	1	0
172	4	37	P	P	d	1535.59	1	8	24	3	56	i	n	485.85	1	100	100	1	0
172	4	38	P	P	d	829.87	1	4	24	9	56	c	n	1211.49	1	1000	100	0	0
172	4	39	N	N	f	646.91	0	7	24	3	56	i	j	1280.16	1	1000	100	1	0
172	4	40	P	P	d	828.28	1	4	56	8	24	i	j	525.17	1	1000	100	1	0
172	4	41	P	P	d	1487.13	1	8	56	3	24	c	j	436.68	1	1000	1000	0	0
172	4	42	P	P	d	739.87	1	4	56	9	24	i	j	1071.16	1	1000	100	0	0
172	4	43	P	P	d	482.93	1	9	24	3	56	i	n	462.59	1	100	100	0	0
172	4	44	N	N	f	395.39	0	7	56	4	24	c	j	649.11	1	1000	100	1	0
172	4	45	N	N	f	561.72	0	2	24	7	56	c	n	715.36	1	100	1000	0	0
172	4	46	N	N	f	1741.6	0	4	56	9	24	i	n	766.93	1	1000	1000	0	0
172	4	47	P	P	d	586.16	1	2	56	7	24	i	j	1076.83	1	100	1000	1	0
172	4	48	P	P	d	1591.57	1	4	24	9	56	c	n	564.48	1	100	1000	0	0
172	4	49	N	N	f	403.56	0	3	56	7	24	i	n	617.82	1	100	100	1	0
172	4	50	P	P	d	693.45	1	4	56	7	24	i	j	1185.16	1	1000	1000	1	0
172	4	51	N	N	f	693.72	0	8	24	2	56	i	j	803.59	1	1000	1000	1	0
172	4	52	N	N	f	655.5	0	4	56	7	24	i	n	530.62	1	1000	100	0	0
172	4	53	N	N	f	784.88	0	2	56	7	24	i	n	536.33	1	100	100	0	0
172	4	54	P	P	d	876.61	1	4	24	9	56	c	n	859.11	1	1000	100	1	0
172	4	55	N	N	f	600.55	0	7	24	2	56	i	j	660.64	1	100	100	1	0
172	4	56	P	P	d	763.73	1	7	56	3	24	c	j	582.59	1	1000	100	1	0
172	4	57	P	P	d	889.46	1	4	24	7	56	c	n	529.27	1	100	100	0	0
172	4	58	P	P	d	1683.77	1	8	24	2	56	i	n	932.78	1	1000	1000	0	0
172	4	59	P	P	d	685.03	1	4	24	9	56	c	n	537.08	1	1000	1000	0	0
172	4	60	P	P	d	548.76	1	8	56	3	24	c	j	843.87	1	1000	100	0	0
172	4	61	N	N	f	871.72	0	7	24	2	56	i	j	877.13	1	100	1000	1	0
172	4	62	N	N	f	1107.01	0	7	56	4	24	c	j	721.08	1	1000	1000	0	0
172	4	63	N	N	f	684.26	0	9	56	3	24	c	j	604.23	1	1000	100	0	0
172	4	64	N	N	f	549.98	0	2	24	9	56	c	n	586.62	1	1000	100	0	0
172	4	65	N	N	f	1089.71	0	8	24	4	56	i	j	1283.44	1	100	100	0	0
172	5	1	N	N	f	737.05	0	3	56	9	24	i	n	752.77	1	100	100	-1	0
172	5	2	P	P	d	723.19	1	7	56	2	24	c	j	565.12	1	100	100	1	0
172	5	3	N	N	f	627.65	0	4	56	8	24	i	n	1042.06	1	1000	100	1	0
172	5	4	P	P	d	1891.86	1	8	24	3	56	i	n	520.1	1	1000	1000	1	0
172	5	5	P	P	d	740.78	1	4	24	8	56	c	n	452.39	1	100	100	0	0
172	5	6	N	N	f	617.57	0	9	24	3	56	i	j	642.54	1	100	100	1	0
172	5	7	P	P	d	1184.44	1	4	24	7	56	c	n	428.71	1	1000	1000	1	0
172	5	8	P	P	d	637.7	1	8	24	2	56	i	n	842.43	1	100	1000	0	0
172	5	9	P	P	d	498.85	1	8	56	4	24	c	j	630.44	1	100	100	0	0
172	5	10	N	N	f	695.48	0	9	56	2	24	c	j	569.85	1	100	100	1	0
172	5	11	P	P	d	932.35	1	3	24	8	56	c	n	595.42	1	100	100	1	0
172	5	12	N	N	f	750.35	0	2	24	9	56	c	n	990.62	1	100	1000	1	0
172	5	13	N	N	d	1901.74	0	4	24	9	56	c	n	523.82	1	1000	1000	0	0
172	5	14	N	N	f	813.02	0	9	24	2	56	i	j	975.91	1	100	100	0	0
172	5	15	P	P	d	701.33	1	4	56	9	24	i	j	524.06	1	100	1000	1	0
172	5	16	N	N	f	1576.95	0	7	56	2	24	c	j	994.24	1	1000	1000	1	0
172	5	17	N	N	f	646.68	0	7	56	3	24	c	j	560.44	1	100	100	0	0
172	5	18	N	N	f	636.3	0	9	56	4	24	c	j	615.6	1	100	1000	0	0
172	5	19	N	N	f	573.26	0	2	56	7	24	i	n	901.84	1	1000	100	0	0
172	5	20	P	P	d	647.68	1	8	56	3	24	c	j	1067.18	1	1000	1000	1	0
172	5	21	P	P	d	416.68	1	4	56	7	24	i	j	451.59	1	100	100	0	0
172	5	22	P	P	d	480.39	1	3	24	9	56	c	n	537.24	1	100	1000	0	0
172	5	23	N	N	f	414.49	0	9	24	2	56	i	j	1022.58	1	1000	100	1	0
172	5	24	N	N	f	811.25	0	3	56	7	24	i	n	1793.86	1	100	1000	0	0
172	5	25	P	P	d	1157.58	1	8	56	4	24	c	j	1296.78	1	1000	100	1	0
172	5	26	N	N	f	1266.18	0	3	24	7	56	c	n	1169.29	1	1000	1000	1	0
172	5	27	P	P	d	2938.61	1	7	24	4	56	i	n	1416.16	1	1000	100	1	0
172	5	28	N	N	f	1000.39	0	7	56	3	24	c	j	2418.74	1	100	1000	1	0
172	5	29	P	P	d	641.98	1	9	24	4	56	i	n	2546.8	1	100	100	1	0
172	5	30	N	N	f	524.56	0	2	56	8	24	i	n	1419.68	1	100	1000	1	0
172	5	31	P	P	d	649.18	1	3	56	9	24	i	j	785.79	1	1000	1000	1	0
172	5	32	P	P	d	851.97	1	9	56	4	24	c	j	457.54	1	1000	1000	0	0
172	5	33	P	P	d	519.56	1	9	24	3	56	i	n	527.59	1	1000	100	0	0
172	5	34	N	N	f	624.35	0	2	24	7	56	c	n	712.0	1	1000	100	1	0
172	5	35	P	P	d	828.7	1	3	56	8	24	i	j	535.77	1	100	100	1	0
172	5	36	P	P	d	1391.54	1	2	24	8	56	c	n	496.88	1	1000	1000	0	0
172	5	37	P	P	d	504.38	1	7	24	3	56	i	n	472.2	1	100	100	0	0
172	5	38	N	N	f	405.58	0	2	56	8	24	i	j	832.67	0	1000	1000	1	0
172	5	39	N	N	f	550.02	0	8	24	3	56	i	j	821.46	1	1000	1000	0	1
172	5	40	N	N	f	842.63	0	8	56	4	24	c	j	1038.19	1	1000	1000	0	0
172	5	41	N	N	f	730.86	0	3	24	8	56	c	n	751.91	1	1000	100	0	0
172	5	42	N	N	f	501.86	0	2	56	7	24	i	n	751.13	1	1000	1000	0	0
172	5	43	P	P	d	719.96	1	4	24	8	56	c	n	493.97	1	1000	100	1	0
172	5	44	P	P	d	1388.55	1	3	56	8	24	i	j	1260.66	1	1000	100	0	0
172	5	45	N	N	f	735.17	0	9	56	2	24	c	j	1166.64	1	1000	100	1	0
172	5	46	N	N	f	2069.46	0	8	56	3	24	c	j	863.25	1	1000	100	0	0
172	5	47	N	N	f	401.71	0	2	24	8	56	c	n	481.63	1	100	100	0	0
172	5	48	N	N	f	515.27	0	8	24	4	56	i	j	855.5	1	1000	100	0	0
172	5	49	P	P	d	719.23	1	2	56	8	24	i	j	447.64	1	1000	100	1	0
172	5	50	N	N	f	1033.81	0	8	24	3	56	i	j	1215.29	1	100	1000	1	0
172	5	51	P	P	d	584.28	1	8	56	2	24	c	j	1058.48	1	100	1000	1	0
172	5	52	P	P	d	980.61	1	7	56	3	24	c	j	425.55	1	1000	100	0	0
172	5	53	P	P	d	381.15	1	4	56	7	24	i	j	808.33	1	100	1000	0	0
172	5	54	P	P	d	442.38	1	8	56	3	24	c	j	509.72	1	100	1000	0	0
172	5	55	N	N	f	894.02	0	2	56	8	24	i	n	1266.29	1	100	100	1	0
172	5	56	P	P	d	775.44	1	4	24	8	56	c	n	768.26	1	100	1000	1	0
172	5	57	P	P	d	456.86	1	3	56	7	24	i	j	575.88	1	1000	1000	0	0
172	5	58	P	P	d	622.59	1	2	24	7	56	c	n	631.35	1	1000	100	0	0
172	5	59	P	P	d	480.97	1	7	24	4	56	i	n	436.87	1	1000	1000	0	0
172	5	60	N	N	f	752.0	0	8	24	2	56	i	j	975.44	1	1000	1000	1	0
172	5	61	N	N	f	1701.84	0	3	24	9	56	c	n	715.41	1	100	1000	0	0
172	5	62	P	P	d	2114.42	1	7	24	4	56	i	n	502.18	1	100	1000	1	0
172	5	63	N	N	f	825.31	0	2	24	7	56	c	n	1139.83	1	100	100	1	0
172	5	64	N	N	f	552.47	0	9	24	3	56	i	j	908.63	1	100	1000	0	0
172	5	65	N	N	f	1071.96	0	4	56	9	24	i	n	866.3	1	100	100	0	0
172	6	1	N	N	f	735.62	0	2	24	9	56	c	n	819.32	1	1000	100	-1	0
172	6	2	P	P	d	1042.96	1	4	56	8	24	i	j	464.94	1	1000	1000	1	0
172	6	3	N	N	f	729.65	0	8	24	3	56	i	j	1008.54	1	1000	1000	1	0
172	6	4	N	N	f	695.31	0	9	24	2	56	i	j	996.74	1	1000	100	0	0
172	6	5	N	N	f	582.59	0	3	24	9	56	c	n	764.75	1	100	100	0	0
172	6	6	P	P	d	797.26	1	4	56	8	24	i	n	1099.87	0	100	1000	1	0
172	6	7	N	N	f	573.14	0	9	56	2	24	c	j	1283.6	1	1000	1000	1	1
172	6	8	N	N	f	607.54	0	9	24	4	56	i	j	868.24	1	100	1000	0	0
172	6	9	P	P	d	502.73	1	8	56	3	24	c	j	1335.67	1	1000	1000	1	0
172	6	10	N	N	f	1538.58	0	8	56	2	24	c	j	854.2	1	100	100	1	0
172	6	11	P	P	d	920.97	1	7	24	4	56	i	n	965.54	1	1000	1000	1	0
172	6	12	P	P	d	605.54	1	3	56	9	24	i	j	497.16	1	1000	100	0	0
172	6	13	N	N	f	615.04	0	8	56	2	24	c	j	1001.07	1	1000	100	1	0
172	6	14	N	N	f	607.55	0	7	56	4	24	c	j	699.9	1	1000	1000	0	0
172	6	15	P	P	d	855.57	1	2	24	7	56	c	n	417.2	1	100	100	1	0
172	6	16	P	P	d	642.71	1	3	56	7	24	i	j	522.79	1	100	100	0	0
172	6	17	P	P	d	787.78	1	4	24	8	56	c	n	1552.26	1	1000	100	0	0
172	6	18	P	P	d	1001.51	1	8	24	3	56	i	n	1379.77	1	1000	1000	0	0
172	6	19	N	N	f	737.78	0	4	56	9	24	i	n	1439.28	1	1000	1000	1	0
172	6	20	N	N	d	1956.58	0	2	24	8	56	c	n	1091.32	1	1000	1000	0	0
172	6	21	N	N	d	688.94	0	3	56	9	24	i	n	2115.83	1	100	100	0	0
172	6	22	P	P	d	837.2	1	4	24	7	56	c	n	2450.48	1	100	1000	1	0
172	6	23	P	P	d	1303.05	1	2	24	9	56	c	n	1178.56	1	1000	1000	0	0
172	6	24	P	P	d	872.52	1	4	24	9	56	c	n	652.86	1	100	1000	0	0
172	6	25	P	P	d	3327.41	1	9	56	2	24	c	j	779.38	1	1000	100	0	0
172	6	26	P	P	d	1853.24	1	3	56	9	24	i	j	1075.65	1	100	1000	0	0
172	6	27	N	N	f	701.14	0	7	24	4	56	i	j	3653.57	1	100	100	1	0
172	6	28	N	N	f	473.2	0	2	56	8	24	i	n	743.96	1	100	1000	0	0
172	6	29	N	N	f	601.95	0	8	24	3	56	i	j	863.57	1	100	100	0	0
172	6	30	P	P	d	819.33	1	7	24	4	56	i	n	627.38	1	100	100	1	0
172	6	31	N	N	f	826.66	0	2	24	7	56	c	n	916.04	1	1000	100	1	0
172	6	32	N	N	f	718.76	0	8	24	3	56	i	j	615.65	1	1000	1000	0	0
172	6	33	P	P	d	594.76	1	8	56	2	24	c	j	570.3	1	1000	100	1	0
172	6	34	N	N	f	684.52	0	7	24	4	56	i	j	851.16	1	100	1000	1	0
172	6	35	P	P	d	855.96	1	3	24	9	56	c	n	495.23	1	1000	1000	1	0
172	6	36	N	N	f	1074.56	0	8	24	2	56	i	j	1308.37	1	1000	100	1	0
172	6	37	N	N	f	564.5	0	4	56	7	24	i	n	718.58	1	1000	100	0	0
172	6	38	P	P	d	931.39	1	2	56	8	24	i	j	425.89	1	100	100	1	0
172	6	39	N	N	f	600.32	0	3	24	8	56	c	n	563.08	1	100	1000	1	0
172	6	40	N	N	f	717.56	0	9	56	2	24	c	j	552.51	1	100	100	0	0
172	6	41	P	P	d	572.51	1	8	56	3	24	c	j	618.71	1	100	1000	1	0
172	6	42	N	N	f	560.21	0	8	56	4	24	c	j	1253.51	1	100	1000	1	0
172	6	43	P	P	d	1133.35	1	2	24	8	56	c	n	956.06	1	1000	100	1	0
172	6	44	N	N	f	1260.49	0	4	56	9	24	i	n	748.25	1	1000	100	1	0
172	6	45	N	N	f	673.15	0	8	56	3	24	c	j	1070.1	1	1000	100	0	0
172	6	46	P	P	d	763.76	1	7	24	2	56	i	n	1222.48	1	100	1000	1	0
172	6	47	N	N	f	686.73	0	4	56	9	24	i	n	1179.54	1	100	1000	1	0
172	6	48	P	P	d	658.89	1	9	24	3	56	i	n	1489.66	1	1000	100	1	0
172	6	49	N	N	f	776.18	0	2	24	9	56	c	n	880.85	1	1000	1000	1	0
172	6	50	N	N	f	661.36	0	4	24	9	56	c	n	557.88	1	1000	100	0	0
172	6	51	N	N	f	328.09	0	3	56	7	24	i	n	625.31	1	1000	1000	0	0
172	6	52	N	N	f	633.83	0	2	24	7	56	c	n	1024.35	1	100	1000	0	0
172	6	53	P	P	d	801.34	1	9	56	4	24	c	j	1447.84	1	100	100	1	0
172	6	54	P	P	d	503.87	1	9	56	3	24	c	j	494.78	1	100	100	0	0
172	6	55	P	P	d	601.82	1	8	56	2	24	c	j	896.92	1	1000	1000	0	0
172	6	56	P	P	d	480.75	1	7	24	4	56	i	n	707.19	1	100	100	0	0
172	6	57	P	P	d	441.13	1	3	24	9	56	c	n	498.47	1	100	100	0	0
172	6	58	P	P	d	449.2	1	9	56	2	24	c	j	415.53	1	100	1000	0	0
172	6	59	P	P	d	449.9	1	8	24	3	56	i	n	451.11	1	1000	100	0	0
172	6	60	P	P	d	360.28	1	4	56	9	24	i	j	500.52	1	1000	1000	0	0
172	6	61	N	N	f	586.6	0	3	24	8	56	c	n	572.24	1	100	100	1	0
172	6	62	N	N	f	541.13	0	8	56	2	24	c	j	790.01	1	100	1000	0	0
172	6	63	P	P	d	788.06	1	4	56	9	24	i	j	1473.45	1	1000	100	1	0
172	6	64	P	P	d	1385.09	1	7	24	2	56	i	n	491.36	1	100	1000	0	0
172	6	65	N	N	f	937.19	0	4	56	7	24	i	n	729.72	1	100	100	1	0
