subj	block	trial	task_cue	task	choice_resp	choiceRT	choice_acc	topnum	topsize	botnum	botsize	cong	task_resp	taskRT	task_acc	RSI	CSI	altRep	E1
175	1	1	?	N	d	-184.11	NA	8	56	2	24	c	j	409.31	1	1000	100	-1	0
175	1	2	?	P	f	837.85	NA	3	24	9	56	c	n	567.48	1	100	100	0	0
175	1	3	?	P	f	131.14	NA	2	24	7	56	c	j	431.77	0	1000	100	0	0
175	1	4	?	P	f	922.32	NA	4	56	7	24	i	j	524.68	1	100	100	0	1
175	1	5	?	N	d	700.66	NA	7	24	3	56	i	j	513.22	1	100	100	0	0
175	1	6	?	P	f	131.75	NA	9	56	4	24	c	j	477.26	1	1000	1000	0	0
175	1	7	?	N	d	83.76	NA	9	56	2	24	c	n	451.12	0	1000	1000	0	0
175	1	8	?	N	d	538.37	NA	4	56	7	24	i	n	1085.42	1	100	100	0	1
175	1	9	?	P	f	571.13	NA	3	24	8	56	c	j	748.18	0	100	100	0	0
175	1	10	?	N	d	617.33	NA	9	56	2	24	c	n	79.36	0	100	1000	0	1
175	1	11	?	N	d	729.21	NA	4	24	7	56	c	j	249.31	0	100	1000	0	1
175	1	12	?	P	f	-35.7	NA	7	56	3	24	c	j	449.7	1	1000	1000	0	1
175	1	13	?	P	f	236.43	NA	9	24	2	56	i	j	567.19	0	1000	100	0	0
175	1	14	?	P	f	259.66	NA	3	24	9	56	c	n	640.1	1	1000	1000	0	1
175	1	15	?	N	d	214.41	NA	2	24	8	56	c	j	150.21	0	1000	1000	0	0
175	1	16	?	P	f	2084.3	NA	3	24	9	56	c	n	476.93	1	100	1000	0	1
175	1	17	?	N	d	-64.03	NA	7	24	4	56	i	n	905.25	0	1000	1000	0	0
175	1	18	?	N	d	426.88	NA	8	56	2	24	c	j	788.04	1	1000	100	0	1
175	1	19	?	P	f	990.35	NA	9	56	4	24	c	j	750.71	1	100	100	0	0
175	1	20	?	P	f	856.4	NA	2	56	8	24	i	j	658.21	1	100	1000	0	0
175	1	21	?	N	d	521.08	NA	7	56	3	24	c	j	557.57	1	100	100	0	0
175	1	22	?	P	f	474.16	NA	9	24	4	56	i	n	728.41	1	1000	1000	0	0
175	1	23	?	P	f	1087.44	NA	9	24	2	56	i	n	1028.14	1	100	100	0	0
175	1	24	?	N	d	-119.28	NA	3	24	9	56	c	n	771.69	1	1000	1000	0	0
175	1	25	?	P	f	44.27	NA	4	56	9	24	i	j	529.85	1	1000	100	0	0
175	1	26	?	P	f	897.75	NA	8	56	3	24	c	j	441.73	1	100	1000	0	0
175	1	27	?	N	d	386.34	NA	7	56	2	24	c	j	375.32	1	100	1000	0	0
175	1	28	?	P	f	-189.52	NA	7	24	4	56	i	n	668.77	1	1000	100	0	0
175	1	29	?	N	d	-263.67	NA	2	24	8	56	c	n	593.15	1	1000	1000	0	0
175	1	30	?	N	d	589.65	NA	8	24	3	56	i	j	917.5	1	1000	1000	0	0
175	1	31	?	P	f	-248.02	NA	4	24	7	56	c	n	632.0	1	1000	100	0	0
175	1	32	?	P	f	32.82	NA	9	24	2	56	i	n	838.37	1	1000	1000	0	0
175	1	33	?	N	d	201.67	NA	3	56	7	24	i	j	936.94	0	1000	100	0	0
175	1	34	?	N	d	1011.07	NA	2	24	7	56	c	n	337.33	1	100	1000	0	1
175	1	35	?	P	f	235.21	NA	8	56	4	24	c	j	622.05	1	1000	100	0	0
175	1	36	?	N	d	45.4	NA	2	24	9	56	c	n	554.39	1	1000	100	0	0
175	1	37	?	N	d	245.91	NA	3	56	7	24	i	n	474.22	1	1000	1000	0	0
175	1	38	?	P	f	510.32	NA	9	24	2	56	i	n	539.22	1	100	1000	0	0
175	1	39	?	N	d	101.41	NA	7	24	4	56	i	j	1038.72	1	1000	100	0	0
175	1	40	?	N	d	-103.33	NA	8	56	2	24	c	j	550.77	1	1000	1000	0	0
175	1	41	?	P	f	23.89	NA	8	56	4	24	c	j	649.91	1	1000	100	0	0
175	1	42	?	P	f	833.56	NA	8	56	3	24	c	j	524.6	1	100	100	0	0
175	1	43	?	P	f	-280.47	NA	2	56	7	24	i	n	689.62	0	1000	100	0	0
175	1	44	?	N	d	778.03	NA	4	56	9	24	i	n	1058.44	1	100	1000	0	1
175	1	45	?	P	f	-123.11	NA	3	56	7	24	i	j	1014.64	1	1000	1000	0	0
175	1	46	?	N	d	550.39	NA	4	24	8	56	c	n	591.89	1	100	100	0	0
175	1	47	?	P	f	465.81	NA	3	56	7	24	i	j	1040.18	1	100	100	0	0
175	1	48	?	N	d	496.55	NA	4	24	9	56	c	n	600.63	1	100	100	0	0
175	1	49	?	N	d	462.52	NA	7	56	2	24	c	j	507.87	1	100	1000	0	0
175	1	50	?	P	f	273.43	NA	3	56	7	24	i	j	682.6	1	100	1000	0	0
175	1	51	?	N	d	393.86	NA	8	24	4	56	i	j	561.92	1	100	1000	0	0
175	1	52	?	P	f	-444.49	NA	2	56	9	24	i	j	1088.74	1	1000	100	0	0
175	1	53	?	P	f	-193.42	NA	4	24	9	56	c	n	461.61	1	1000	100	0	0
175	1	54	?	P	f	637.31	NA	3	24	8	56	c	n	612.54	1	100	1000	0	0
175	1	55	?	N	d	457.64	NA	8	24	4	56	i	n	964.06	0	100	1000	0	0
175	1	56	?	P	f	1123.18	NA	8	24	2	56	i	n	1143.46	1	100	100	0	1
175	1	57	?	P	f	-278.47	NA	7	24	4	56	i	n	624.17	1	1000	100	0	0
175	1	58	?	P	f	554.77	NA	9	24	2	56	i	n	826.25	1	100	1000	0	0
175	1	59	?	N	d	994.8	NA	9	24	3	56	i	j	1497.57	1	100	100	0	0
175	1	60	?	N	d	593.97	NA	4	56	7	24	i	n	697.77	1	100	100	0	0
175	1	61	?	P	f	-161.01	NA	7	56	2	24	c	j	493.79	1	1000	100	0	0
175	1	62	?	P	f	-130.91	NA	3	56	8	24	i	j	422.17	1	1000	1000	0	0
175	1	63	?	P	f	1339.76	NA	8	24	4	56	i	n	590.98	1	100	1000	0	0
175	1	64	?	N	d	386.48	NA	7	56	3	24	c	j	465.39	1	100	100	0	0
175	1	65	?	N	d	66.29	NA	2	56	9	24	i	n	703.74	1	1000	1000	0	0
175	2	1	?	N	d	671.9	NA	3	24	8	56	c	n	680.51	1	100	1000	-1	0
175	2	2	?	P	f	785.46	NA	7	24	4	56	i	n	633.14	1	100	100	0	0
175	2	3	?	P	f	597.61	NA	3	56	9	24	i	j	611.86	1	100	100	0	0
175	2	4	?	P	f	468.35	NA	4	24	8	56	c	n	508.1	1	100	1000	0	0
175	2	5	?	N	d	386.4	NA	9	24	3	56	i	j	960.49	1	100	100	0	0
175	2	6	?	P	f	-457.47	NA	2	56	8	24	i	n	1040.57	0	1000	1000	0	0
175	2	7	?	N	d	-113.04	NA	3	56	7	24	i	n	1059.55	1	1000	1000	0	1
175	2	8	?	N	d	477.25	NA	4	24	9	56	c	n	810.75	1	100	100	0	0
175	2	9	?	N	d	533.95	NA	8	56	2	24	c	j	642.57	1	100	1000	0	0
175	2	10	?	P	f	-503.59	NA	4	56	7	24	i	j	849.79	1	1000	100	0	0
175	2	11	?	P	f	-463.67	NA	9	24	3	56	i	n	505.89	1	1000	1000	0	0
175	2	12	?	N	d	-361.06	NA	4	24	9	56	c	j	1080.55	0	1000	1000	0	0
175	2	13	?	P	f	504.11	NA	3	56	7	24	i	j	758.46	1	100	1000	0	1
175	2	14	?	P	f	431.37	NA	4	56	8	24	i	j	533.87	1	100	100	0	0
175	2	15	?	P	f	373.02	NA	7	56	2	24	c	j	940.94	1	100	1000	0	0
175	2	16	?	N	d	328.19	NA	4	24	9	56	c	n	788.31	1	100	1000	0	0
175	2	17	?	N	d	338.48	NA	2	56	7	24	i	n	1041.45	1	100	100	0	0
175	2	18	?	P	f	329.19	NA	3	24	8	56	c	n	711.36	1	100	100	0	0
175	2	19	?	P	f	-411.75	NA	4	24	8	56	c	n	570.13	1	1000	100	0	0
175	2	20	?	P	f	336.41	NA	7	56	3	24	c	j	488.42	1	100	100	0	0
175	2	21	?	N	d	-530.2	NA	4	56	7	24	i	n	968.31	1	1000	1000	0	0
175	2	22	?	N	d	-529.29	NA	9	56	3	24	c	j	1228.37	1	1000	1000	0	0
175	2	23	?	P	f	-558.95	NA	2	24	7	56	c	n	467.47	1	1000	100	0	0
175	2	24	?	P	f	356.28	NA	4	24	8	56	c	n	535.98	1	100	1000	0	0
175	2	25	?	N	d	234.35	NA	2	24	9	56	c	n	914.19	1	100	100	0	0
175	2	26	?	N	d	593.88	NA	3	56	8	24	i	n	719.95	1	100	1000	0	0
175	2	27	?	P	f	437.58	NA	2	24	9	56	c	n	657.94	1	100	100	0	0
175	2	28	?	N	d	273.42	NA	3	24	7	56	c	n	480.43	1	100	1000	0	0
175	2	29	?	N	d	369.15	NA	8	56	4	24	c	j	801.53	1	100	1000	0	0
175	2	30	?	P	f	188.69	NA	2	56	8	24	i	j	906.5	1	100	100	0	0
175	2	31	?	P	f	373.58	NA	9	24	4	56	i	n	806.79	1	100	100	0	0
175	2	32	?	N	d	-664.15	NA	8	24	3	56	i	n	1104.08	0	1000	1000	0	0
175	2	33	?	P	f	-419.54	NA	8	24	2	56	i	j	1180.36	0	1000	100	0	1
175	2	34	?	P	f	-285.56	NA	3	56	8	24	i	j	977.14	1	1000	100	0	1
175	2	35	?	N	d	83.29	NA	2	56	8	24	i	n	1244.23	1	1000	1000	0	0
175	2	36	?	P	f	2142.78	NA	9	24	4	56	i	n	851.78	1	100	1000	0	0
175	2	37	?	N	d	503.66	NA	7	24	2	56	i	j	1489.56	1	100	1000	0	0
175	2	38	?	N	d	-272.09	NA	9	24	3	56	i	j	743.19	1	1000	100	0	0
175	2	39	?	P	f	-469.35	NA	7	56	4	24	c	j	613.26	1	1000	100	0	0
175	2	40	?	P	f	109.28	NA	2	24	9	56	c	n	528.44	1	1000	100	0	0
175	2	41	?	N	d	-84.78	NA	3	56	9	24	i	n	1267.58	1	1000	100	0	0
175	2	42	?	P	f	445.93	NA	7	24	4	56	i	n	530.94	1	100	1000	0	0
175	2	43	?	N	d	696.14	NA	9	56	2	24	c	j	722.64	1	100	100	0	0
175	2	44	?	P	f	237.54	NA	3	56	9	24	i	j	713.6	1	100	1000	0	0
175	2	45	?	N	d	-375.56	NA	9	56	2	24	c	j	977.1	1	1000	100	0	0
175	2	46	?	P	f	614.0	NA	8	56	4	24	c	n	790.98	0	100	100	0	0
175	2	47	?	N	d	644.36	NA	3	56	9	24	i	n	517.16	1	100	1000	0	1
175	2	48	?	P	f	-349.55	NA	2	56	7	24	i	j	541.43	1	1000	1000	0	0
175	2	49	?	P	f	-336.44	NA	3	56	8	24	i	j	441.8	1	1000	1000	0	0
175	2	50	?	P	f	-346.96	NA	9	56	4	24	c	j	408.66	1	1000	1000	0	0
175	2	51	?	N	d	-605.59	NA	3	56	8	24	i	n	950.55	1	1000	100	0	0
175	2	52	?	P	f	-102.98	NA	4	24	8	56	c	n	450.12	1	1000	1000	0	0
175	2	53	?	N	d	-552.15	NA	9	56	3	24	c	j	631.61	1	1000	100	0	0
175	2	54	?	P	f	-385.23	NA	7	56	4	24	c	j	1022.71	1	1000	1000	0	0
175	2	55	?	N	d	395.11	NA	3	56	7	24	i	n	1037.1	1	100	100	0	0
175	2	56	?	N	d	-307.4	NA	2	56	9	24	i	n	1270.32	1	1000	100	0	0
175	2	57	?	P	f	-341.21	NA	8	56	4	24	c	j	1235.76	1	1000	1000	0	0
175	2	58	?	N	d	-308.98	NA	7	24	3	56	i	j	1235.3	1	1000	100	0	0
175	2	59	?	P	f	-118.16	NA	2	24	8	56	c	n	873.66	1	1000	1000	0	0
175	2	60	?	P	f	429.68	NA	8	56	4	24	c	j	678.05	1	100	100	0	0
175	2	61	?	N	d	-490.02	NA	2	24	8	56	c	n	716.66	1	1000	1000	0	0
175	2	62	?	N	d	-407.35	NA	8	56	3	24	c	j	754.7	1	1000	100	0	0
175	2	63	?	P	f	561.92	NA	7	56	4	24	c	j	507.17	1	100	1000	0	0
175	2	64	?	N	d	362.69	NA	8	24	3	56	i	j	734.1	1	100	1000	0	0
175	2	65	?	P	f	236.34	NA	2	24	8	56	c	n	747.46	1	1000	100	0	0
175	3	1	?	N	d	536.87	NA	9	24	4	56	i	n	487.69	0	1000	1000	-1	0
175	3	2	?	N	d	347.94	NA	8	24	2	56	i	j	758.2	1	1000	100	0	1
175	3	3	?	N	d	353.21	NA	9	56	4	24	c	j	723.16	1	100	1000	0	0
175	3	4	?	P	f	530.43	NA	2	56	8	24	i	j	993.84	1	100	100	0	0
175	3	5	?	N	d	-614.96	NA	3	56	8	24	i	n	692.05	1	1000	1000	0	0
175	3	6	?	N	d	521.65	NA	7	56	4	24	c	j	973.5	1	100	100	0	0
175	3	7	?	P	f	350.79	NA	7	24	2	56	i	n	681.88	1	100	1000	0	0
175	3	8	?	N	d	-306.6	NA	7	24	3	56	i	j	1203.94	1	1000	100	0	0
175	3	9	?	P	f	-633.64	NA	9	24	2	56	i	n	482.43	1	1000	1000	0	0
175	3	10	?	N	d	348.26	NA	4	56	8	24	i	n	804.44	1	100	100	0	0
175	3	11	?	P	f	-531.23	NA	3	24	9	56	c	n	529.22	1	1000	100	0	0
175	3	12	?	P	f	480.42	NA	7	56	4	24	c	j	521.27	1	100	100	0	0
175	3	13	?	N	d	-541.85	NA	7	56	3	24	c	n	855.43	0	1000	100	0	0
175	3	14	?	N	d	-361.45	NA	9	24	2	56	i	j	518.07	1	1000	1000	0	1
175	3	15	?	P	f	334.75	NA	3	24	7	56	c	n	440.66	1	100	1000	0	0
175	3	16	?	P	f	-753.31	NA	7	56	4	24	c	j	485.95	1	1000	1000	0	0
175	3	17	?	P	f	234.63	NA	3	24	7	56	c	n	485.96	1	100	1000	0	0
175	3	18	?	N	d	267.77	NA	2	24	7	56	c	j	519.79	0	100	1000	0	0
175	3	19	?	N	d	312.94	NA	4	24	8	56	c	n	577.88	1	100	100	0	1
175	3	20	?	P	f	299.11	NA	9	56	3	24	c	j	512.09	1	100	100	0	0
175	3	21	?	N	d	267.05	NA	7	24	2	56	i	j	1063.81	1	100	1000	0	0
175	3	22	?	N	d	796.25	NA	7	56	3	24	c	j	530.69	1	100	1000	0	0
175	3	23	?	N	d	515.75	NA	4	56	8	24	i	j	365.3	0	100	1000	0	0
175	3	24	?	P	f	-408.24	NA	8	56	2	24	c	j	484.21	1	1000	100	0	1
175	3	25	?	N	d	440.64	NA	9	24	3	56	i	j	1235.24	1	100	100	0	0
175	3	26	?	P	f	328.27	NA	9	24	2	56	i	n	732.79	1	100	100	0	0
175	3	27	?	N	d	-519.4	NA	3	56	9	24	i	n	686.81	1	1000	100	0	0
175	3	28	?	P	f	-542.98	NA	2	56	8	24	i	j	808.88	1	1000	1000	0	0
175	3	29	?	P	f	-718.1	NA	9	24	4	56	i	n	500.37	1	1000	100	0	0
175	3	30	?	N	d	181.17	NA	2	56	7	24	i	n	601.19	1	100	100	0	0
175	3	31	?	P	f	-349.21	NA	4	56	9	24	i	j	823.49	1	1000	100	0	0
175	3	32	?	N	d	-607.33	NA	3	56	9	24	i	n	801.77	1	1000	100	0	0
175	3	33	?	N	d	-579.16	NA	4	24	8	56	c	n	424.65	1	1000	100	0	0
175	3	34	?	N	d	-549.34	NA	7	56	3	24	c	j	476.46	1	1000	1000	0	0
175	3	35	?	P	f	-593.49	NA	8	24	4	56	i	n	500.59	1	1000	100	0	0
175	3	36	?	P	f	406.62	NA	8	24	2	56	i	n	367.74	1	100	1000	0	0
175	3	37	?	N	d	406.86	NA	3	56	7	24	i	n	661.22	1	100	100	0	0
175	3	38	?	P	f	332.43	NA	8	56	2	24	c	j	398.83	1	100	1000	0	0
175	3	39	?	N	d	-531.12	NA	3	56	9	24	i	n	933.3	1	1000	1000	0	0
175	3	40	?	N	d	-406.62	NA	9	24	4	56	i	j	540.26	1	1000	1000	0	0
175	3	41	?	P	f	-584.92	NA	2	24	7	56	c	n	631.7	1	1000	1000	0	0
175	3	42	?	P	f	-497.68	NA	4	24	7	56	c	n	439.01	1	1000	100	0	0
175	3	43	?	N	d	282.56	NA	7	56	2	24	c	j	477.87	1	100	1000	0	0
175	3	44	?	P	f	-17.91	NA	3	24	7	56	c	n	490.69	1	1000	1000	0	0
175	3	45	?	N	d	801.71	NA	2	24	7	56	c	n	644.03	1	100	100	0	0
175	3	46	?	P	f	692.06	NA	3	56	7	24	i	j	717.9	1	100	1000	0	0
175	3	47	?	P	f	485.77	NA	9	24	2	56	i	n	801.22	1	100	1000	0	0
175	3	48	?	P	f	-523.23	NA	3	56	7	24	i	j	481.06	1	1000	100	0	0
175	3	49	?	N	d	291.96	NA	7	24	2	56	i	j	988.14	1	100	100	0	0
175	3	50	?	P	f	-182.14	NA	4	24	7	56	c	n	550.85	1	1000	1000	0	0
175	3	51	?	N	d	340.02	NA	7	56	2	24	c	j	1143.7	1	100	100	0	0
175	3	52	?	N	d	287.04	NA	8	24	4	56	i	j	725.2	1	100	100	0	0
175	3	53	?	N	d	70.34	NA	8	56	2	24	c	j	399.12	1	1000	1000	0	0
175	3	54	?	N	d	382.04	NA	4	24	8	56	c	n	558.01	1	100	100	0	0
175	3	55	?	P	f	-573.93	NA	3	56	7	24	i	j	429.28	1	1000	1000	0	0
175	3	56	?	P	f	390.66	NA	4	56	7	24	i	j	896.78	1	100	1000	0	0
175	3	57	?	N	d	-724.75	NA	7	56	3	24	c	j	1032.1	1	1000	1000	0	0
175	3	58	?	N	d	460.36	NA	9	24	2	56	i	j	775.78	1	100	1000	0	0
175	3	59	?	P	f	-571.24	NA	3	24	9	56	c	n	432.34	1	1000	1000	0	0
175	3	60	?	N	d	-520.14	NA	2	56	8	24	i	n	1349.37	1	1000	1000	0	0
175	3	61	?	N	d	561.03	NA	4	24	8	56	c	n	800.13	1	1000	100	0	0
175	3	62	?	P	f	428.59	NA	2	24	7	56	c	n	665.73	1	100	100	0	0
175	3	63	?	N	d	-452.46	NA	9	56	3	24	c	j	596.2	1	1000	100	0	0
175	3	64	?	P	f	1032.73	NA	4	24	8	56	c	n	409.72	1	100	1000	0	0
175	3	65	?	N	d	-98.41	NA	7	56	2	24	c	j	995.83	1	1000	100	0	0
175	4	1	?	N	d	55.45	NA	8	24	4	56	i	j	1041.8	1	1000	1000	-1	0
175	4	2	?	N	d	352.7	NA	3	56	7	24	i	n	903.98	1	100	100	0	0
175	4	3	?	N	d	-430.86	NA	9	56	4	24	c	j	573.36	1	1000	100	0	0
175	4	4	?	P	f	283.5	NA	3	24	8	56	c	n	806.42	1	100	100	0	0
175	4	5	?	N	d	316.28	NA	8	56	4	24	c	j	1389.43	1	100	1000	0	0
175	4	6	?	N	d	-80.18	NA	2	24	8	56	c	n	586.42	1	1000	100	0	0
175	4	7	?	P	f	245.88	NA	9	56	3	24	c	j	406.83	1	100	1000	0	0
175	4	8	?	P	f	374.08	NA	7	56	2	24	c	j	447.91	1	100	100	0	0
175	4	9	?	N	d	-374.79	NA	8	24	4	56	i	j	663.53	1	1000	100	0	0
175	4	10	?	P	f	-612.48	NA	7	24	2	56	i	n	795.85	1	1000	1000	0	0
175	4	11	?	P	f	-624.61	NA	9	56	4	24	c	j	390.77	1	1000	100	0	0
175	4	12	?	P	f	397.07	NA	9	56	3	24	c	j	430.5	1	100	1000	0	0
175	4	13	?	P	f	189.04	NA	7	56	2	24	c	j	502.72	1	100	100	0	0
175	4	14	?	N	d	324.37	NA	7	24	4	56	i	j	683.64	1	100	1000	0	0
175	4	15	?	N	d	507.74	NA	2	24	9	56	c	j	536.99	0	100	1000	0	0
175	4	16	?	P	f	-374.92	NA	3	56	7	24	i	j	708.44	1	1000	100	0	1
175	4	17	?	N	d	-527.66	NA	7	24	4	56	i	n	711.75	0	1000	1000	0	0
175	4	18	?	N	d	96.29	NA	2	24	8	56	c	n	666.75	1	1000	1000	0	1
175	4	19	?	P	f	405.25	NA	8	24	4	56	i	j	637.16	0	100	100	0	0
175	4	20	?	N	d	-340.65	NA	7	24	3	56	i	j	1102.4	1	1000	100	0	1
175	4	21	?	P	f	356.59	NA	7	24	2	56	i	n	1268.3	1	100	100	0	0
175	4	22	?	P	f	-297.82	NA	9	56	3	24	c	j	536.88	1	1000	1000	0	0
175	4	23	?	N	d	256.51	NA	4	24	7	56	c	n	1133.02	1	1000	100	0	0
175	4	24	?	P	f	303.76	NA	9	24	2	56	i	j	826.98	0	100	100	0	0
175	4	25	?	P	f	-345.53	NA	4	24	8	56	c	n	444.14	1	1000	1000	0	1
175	4	26	?	N	d	-626.16	NA	2	24	9	56	c	n	614.91	1	1000	100	0	0
175	4	27	?	P	f	460.32	NA	3	24	7	56	c	n	483.36	1	100	1000	0	0
175	4	28	?	N	d	-373.21	NA	4	56	8	24	i	n	890.23	1	1000	100	0	0
175	4	29	?	P	f	373.01	NA	3	56	9	24	i	j	1447.67	1	100	100	0	0
175	4	30	?	N	d	-567.03	NA	7	24	4	56	i	j	954.44	1	1000	100	0	0
175	4	31	?	N	d	-328.62	NA	2	56	8	24	i	n	494.5	1	1000	1000	0	0
175	4	32	?	N	d	490.43	NA	4	24	8	56	c	n	863.35	1	100	100	0	0
175	4	33	?	P	f	267.23	NA	2	56	9	24	i	j	880.28	1	100	100	0	0
175	4	34	?	P	f	469.56	NA	3	56	7	24	i	j	374.9	1	100	1000	0	0
175	4	35	?	N	d	-482.11	NA	4	56	9	24	i	n	847.18	1	1000	1000	0	0
175	4	36	?	P	f	-589.44	NA	7	56	3	24	c	j	886.18	1	1000	1000	0	0
175	4	37	?	P	f	301.89	NA	7	24	4	56	i	n	554.21	1	100	1000	0	0
175	4	38	?	P	f	-621.82	NA	3	56	9	24	i	j	583.61	1	1000	1000	0	0
175	4	39	?	N	d	333.58	NA	4	24	8	56	c	n	468.44	1	100	100	0	0
175	4	40	?	N	d	278.85	NA	3	56	7	24	i	n	834.22	1	100	1000	0	0
175	4	41	?	P	f	-732.13	NA	2	24	9	56	c	n	834.23	1	1000	100	0	0
175	4	42	?	N	d	-157.75	NA	4	24	8	56	c	n	722.12	1	1000	1000	0	0
175	4	43	?	P	f	608.12	NA	3	24	7	56	c	n	728.88	1	100	100	0	0
175	4	44	?	N	d	-174.45	NA	8	56	4	24	c	j	480.17	1	1000	1000	0	0
175	4	45	?	P	f	-702.06	NA	3	56	7	24	i	j	773.89	1	1000	1000	0	0
175	4	46	?	N	d	395.49	NA	9	56	2	24	c	j	599.29	1	100	100	0	0
175	4	47	?	P	f	-609.78	NA	7	24	4	56	i	n	405.81	1	1000	100	0	0
175	4	48	?	N	d	283.1	NA	7	24	3	56	i	j	804.75	1	100	100	0	0
175	4	49	?	P	f	371.92	NA	2	56	8	24	i	j	545.9	1	100	1000	0	0
175	4	50	?	P	f	-748.27	NA	4	56	9	24	i	j	400.87	1	1000	1000	0	0
175	4	51	?	N	d	233.51	NA	2	56	9	24	i	n	928.58	1	100	1000	0	0
175	4	52	?	P	f	-737.88	NA	7	56	3	24	c	j	501.48	1	1000	1000	0	0
175	4	53	?	P	f	446.76	NA	2	24	8	56	c	n	419.36	1	100	1000	0	0
175	4	54	?	N	d	-656.63	NA	3	56	9	24	i	n	460.54	1	1000	100	0	0
175	4	55	?	N	d	-693.85	NA	2	56	8	24	i	n	703.54	1	1000	100	0	0
175	4	56	?	P	f	-632.51	NA	3	24	9	56	c	n	505.38	1	1000	1000	0	0
175	4	57	?	N	d	-507.82	NA	2	56	7	24	i	n	990.42	1	1000	1000	0	0
175	4	58	?	N	d	294.9	NA	9	24	4	56	i	j	1069.25	1	100	1000	0	0
175	4	59	?	P	f	189.12	NA	9	24	2	56	i	n	692.37	1	100	1000	0	0
175	4	60	?	P	f	376.64	NA	4	56	9	24	i	j	685.9	1	100	100	0	0
175	4	61	?	N	d	268.05	NA	7	56	3	24	c	j	643.96	1	100	100	0	0
175	4	62	?	P	f	-468.33	NA	7	56	4	24	c	j	479.48	1	1000	100	0	0
175	4	63	?	P	f	717.74	NA	3	24	7	56	c	n	568.36	1	100	1000	0	0
175	4	64	?	N	d	211.41	NA	9	56	4	24	c	j	765.46	1	100	1000	0	0
175	4	65	?	P	f	-508.8	NA	8	56	2	24	c	j	799.08	1	1000	100	0	0
175	5	1	?	N	d	580.96	NA	4	24	8	56	c	n	949.31	1	100	100	-1	0
175	5	2	?	P	f	450.5	NA	9	24	3	56	i	n	1244.22	1	100	100	0	0
175	5	3	?	N	d	298.75	NA	4	24	7	56	c	n	624.36	1	100	100	0	0
175	5	4	?	P	f	-629.36	NA	7	24	3	56	i	n	689.45	1	1000	100	0	0
175	5	5	?	N	d	-529.26	NA	2	56	7	24	i	j	553.94	0	1000	100	0	0
175	5	6	?	P	f	381.54	NA	7	56	3	24	c	j	534.41	1	100	100	0	1
175	5	7	?	P	f	-608.04	NA	8	56	4	24	c	j	439.83	1	1000	1000	0	0
175	5	8	?	P	f	-618.81	NA	2	24	9	56	c	n	486.35	1	1000	1000	0	0
175	5	9	?	N	d	-690.4	NA	8	24	3	56	i	n	516.52	0	1000	100	0	0
175	5	10	?	N	d	-181.6	NA	8	56	2	24	c	j	563.12	1	1000	1000	0	1
175	5	11	?	P	f	-736.65	NA	9	24	3	56	i	n	446.56	1	1000	1000	0	0
175	5	12	?	N	d	-533.27	NA	9	56	4	24	c	j	413.85	1	1000	1000	0	0
175	5	13	?	P	f	515.25	NA	2	24	8	56	c	n	432.13	1	100	1000	0	0
175	5	14	?	N	d	-564.25	NA	4	24	8	56	c	n	472.33	1	1000	1000	0	0
175	5	15	?	N	d	147.77	NA	3	56	7	24	i	j	554.69	0	100	1000	0	0
175	5	16	?	N	d	721.19	NA	2	56	9	24	i	n	668.92	1	100	100	0	1
175	5	17	?	N	d	403.01	NA	3	56	8	24	i	n	408.75	1	100	1000	0	0
175	5	18	?	P	f	409.43	NA	4	24	7	56	c	n	583.13	1	100	1000	0	0
175	5	19	?	N	d	-260.26	NA	2	56	9	24	i	j	495.25	0	1000	1000	0	0
175	5	20	?	P	f	547.41	NA	7	24	3	56	i	n	1117.92	1	100	1000	0	1
175	5	21	?	N	d	-372.8	NA	7	24	4	56	i	j	1092.96	1	1000	100	0	0
175	5	22	?	N	d	443.48	NA	7	24	2	56	i	j	652.86	1	100	100	0	0
175	5	23	?	P	f	402.76	NA	7	24	3	56	i	n	870.69	1	100	100	0	0
175	5	24	?	N	d	-340.58	NA	9	24	2	56	i	j	1294.19	1	1000	100	0	0
175	5	25	?	P	f	-413.4	NA	4	56	7	24	i	j	432.57	1	1000	1000	0	0
175	5	26	?	N	d	-418.54	NA	2	24	7	56	c	n	731.48	1	1000	100	0	0
175	5	27	?	P	f	572.91	NA	7	56	3	24	c	j	806.49	1	100	100	0	0
175	5	28	?	N	d	-169.32	NA	9	56	2	24	c	j	1318.37	1	1000	100	0	0
175	5	29	?	P	f	-428.03	NA	4	24	8	56	c	n	565.58	1	1000	100	0	0
175	5	30	?	N	d	-374.25	NA	2	56	8	24	i	n	1202.43	1	1000	1000	0	0
175	5	31	?	N	d	369.15	NA	7	24	4	56	i	j	463.92	1	100	1000	0	0
175	5	32	?	N	d	-397.71	NA	2	56	8	24	i	n	528.13	1	1000	100	0	0
175	5	33	?	P	f	265.38	NA	3	56	7	24	i	j	793.49	1	100	100	0	0
175	5	34	?	N	d	590.5	NA	9	24	2	56	i	j	896.19	1	100	1000	0	0
175	5	35	?	P	f	221.62	NA	9	56	3	24	c	j	342.93	1	100	1000	0	0
175	5	36	?	P	f	242.4	NA	9	24	4	56	i	n	470.32	1	100	1000	0	0
175	5	37	?	P	f	-531.43	NA	3	24	7	56	c	n	449.34	1	1000	1000	0	0
175	5	38	?	P	f	-497.07	NA	8	24	4	56	i	n	495.36	1	1000	1000	0	0
175	5	39	?	N	d	592.38	NA	9	56	2	24	c	j	480.93	1	100	1000	0	0
175	5	40	?	P	f	-441.56	NA	7	56	3	24	c	j	674.36	1	1000	1000	0	0
175	5	41	?	P	f	340.08	NA	9	56	2	24	c	j	548.78	1	100	100	0	0
175	5	42	?	N	d	-554.0	NA	7	24	3	56	i	n	539.58	0	1000	1000	0	0
175	5	43	?	P	f	507.85	NA	4	56	9	24	i	j	1100.55	1	100	100	0	1
175	5	44	?	N	d	406.09	NA	3	24	8	56	c	n	1121.29	1	100	100	0	0
175	5	45	?	N	d	-576.89	NA	8	56	4	24	c	j	607.6	1	1000	100	0	0
175	5	46	?	N	d	238.67	NA	8	56	2	24	c	j	535.07	1	100	1000	0	0
175	5	47	?	P	f	-646.11	NA	9	24	3	56	i	n	605.29	1	1000	100	0	0
175	5	48	?	P	f	-653.95	NA	2	56	8	24	i	j	427.75	1	1000	1000	0	0
175	5	49	?	N	d	-737.68	NA	4	24	7	56	c	n	468.24	1	1000	1000	0	0
175	5	50	?	N	d	256.22	NA	2	24	7	56	c	n	647.91	1	100	1000	0	0
175	5	51	?	P	f	167.06	NA	4	24	7	56	c	n	575.36	1	100	1000	0	0
175	5	52	?	N	d	202.31	NA	7	56	3	24	c	j	497.5	1	100	1000	0	0
175	5	53	?	P	f	268.56	NA	2	56	9	24	i	n	565.43	0	100	1000	0	0
175	5	54	?	N	d	-351.51	NA	8	56	4	24	c	j	607.65	1	1000	100	0	1
175	5	55	?	P	f	-685.44	NA	3	56	8	24	i	j	679.09	1	1000	100	0	0
175	5	56	?	N	d	311.44	NA	2	56	8	24	i	j	654.25	0	100	100	0	0
175	5	57	?	N	d	696.89	NA	3	24	9	56	c	n	543.95	1	100	100	0	1
175	5	58	?	P	f	-412.96	NA	4	24	9	56	c	n	512.99	1	1000	100	0	0
175	5	59	?	N	d	-174.09	NA	3	24	9	56	c	n	661.04	1	1000	100	0	0
175	5	60	?	P	f	-569.01	NA	9	56	2	24	c	j	468.45	1	1000	100	0	0
175	5	61	?	N	d	436.46	NA	4	24	7	56	c	n	476.5	1	100	100	0	0
175	5	62	?	P	f	309.53	NA	9	56	2	24	c	j	472.23	1	100	100	0	0
175	5	63	?	N	d	317.09	NA	8	24	4	56	i	j	726.89	1	100	100	0	0
175	5	64	?	N	d	365.27	NA	7	24	2	56	i	j	454.51	1	100	1000	0	0
175	5	65	?	P	f	-496.99	NA	3	56	8	24	i	j	934.32	1	1000	1000	0	0
175	6	1	?	N	d	600.16	NA	9	24	3	56	i	n	941.38	0	100	100	-1	0
175	6	2	?	N	d	779.32	NA	4	56	9	24	i	n	1846.24	1	100	1000	0	1
175	6	3	?	N	d	-659.17	NA	2	56	9	24	i	n	558.52	1	1000	100	0	0
175	6	4	?	P	f	251.7	NA	3	24	8	56	c	n	463.91	1	100	1000	0	0
175	6	5	?	N	d	-611.64	NA	2	56	8	24	i	n	1089.2	1	1000	1000	0	0
175	6	6	?	P	f	282.13	NA	8	24	4	56	i	n	624.47	1	100	100	0	0
175	6	7	?	P	f	-651.6	NA	9	24	3	56	i	n	598.95	1	1000	1000	0	0
175	6	8	?	P	f	247.97	NA	7	56	4	24	c	j	454.13	1	100	1000	0	0
175	6	9	?	N	d	-599.22	NA	7	24	2	56	i	n	573.09	0	1000	1000	0	0
175	6	10	?	N	d	812.01	NA	8	56	4	24	c	j	956.56	1	100	1000	0	1
175	6	11	?	N	d	429.46	NA	7	56	2	24	c	j	486.49	1	100	100	0	0
175	6	12	?	P	f	-577.29	NA	8	24	4	56	i	n	483.76	1	1000	100	0	0
175	6	13	?	P	f	-248.74	NA	7	24	2	56	i	n	665.4	1	1000	100	0	0
175	6	14	?	N	d	-441.71	NA	4	24	7	56	c	n	550.7	1	1000	1000	0	0
175	6	15	?	N	d	440.62	NA	3	56	8	24	i	n	693.47	1	100	1000	0	0
175	6	16	?	P	f	-671.83	NA	4	24	9	56	c	n	826.54	1	1000	1000	0	0
175	6	17	?	P	f	-627.26	NA	3	56	7	24	i	j	759.34	1	1000	100	0	0
175	6	18	?	N	d	263.6	NA	4	24	8	56	c	n	1229.96	1	100	100	0	0
175	6	19	?	P	f	189.11	NA	3	24	7	56	c	n	759.64	1	100	1000	0	0
175	6	20	?	N	d	207.25	NA	7	24	2	56	i	j	-352.54	1	100	1000	0	0
175	6	21	?	N	d	638.73	NA	7	24	4	56	i	j	1200.0	1	100	100	0	0
175	6	22	?	N	d	-699.73	NA	3	56	7	24	i	n	574.3	1	1000	100	0	0
175	6	23	?	N	d	-696.61	NA	4	56	8	24	i	n	542.55	1	1000	1000	0	0
175	6	24	?	P	f	162.99	NA	3	24	8	56	c	j	948.09	0	100	100	0	0
175	6	25	?	N	d	-161.14	NA	8	56	4	24	c	j	672.96	1	1000	1000	0	1
175	6	26	?	P	f	-573.74	NA	7	56	2	24	c	j	666.55	1	1000	100	0	0
175	6	27	?	P	f	-181.48	NA	9	56	3	24	c	j	473.76	1	1000	100	0	0
175	6	28	?	N	d	261.3	NA	8	24	4	56	i	n	507.46	0	100	100	0	0
175	6	29	?	P	f	408.43	NA	7	56	3	24	c	j	764.22	1	100	100	0	1
175	6	30	?	N	d	234.25	NA	7	24	2	56	i	j	846.24	1	100	100	0	0
175	6	31	?	P	f	-579.07	NA	3	56	7	24	i	j	615.94	1	1000	100	0	0
175	6	32	?	N	d	-654.31	NA	8	56	4	24	c	j	472.48	1	1000	1000	0	0
175	6	33	?	P	f	-596.91	NA	3	56	9	24	i	n	598.7	0	1000	100	0	0
175	6	34	?	N	d	-261.7	NA	4	24	8	56	c	n	708.41	1	1000	100	0	1
175	6	35	?	P	f	330.43	NA	9	56	3	24	c	j	442.15	1	100	1000	0	0
175	6	36	?	P	f	-673.32	NA	4	24	8	56	c	n	408.96	1	1000	1000	0	0
175	6	37	?	P	f	105.44	NA	3	24	9	56	c	n	546.49	1	100	1000	0	0
175	6	38	?	N	d	199.81	NA	8	24	2	56	i	j	500.65	1	100	1000	0	0
175	6	39	?	N	d	-702.88	NA	4	24	8	56	c	n	492.33	1	1000	100	0	0
175	6	40	?	P	f	-706.46	NA	7	24	2	56	i	n	465.68	1	1000	1000	0	0
175	6	41	?	P	f	167.79	NA	7	24	3	56	i	n	464.2	1	100	1000	0	0
175	6	42	?	N	d	-701.49	NA	7	56	2	24	c	j	629.14	1	1000	100	0	0
175	6	43	?	P	f	-534.53	NA	8	56	3	24	c	j	424.5	1	1000	100	0	0
175	6	44	?	N	d	139.06	NA	4	56	8	24	i	n	761.06	1	100	100	0	0
175	6	45	?	P	f	-637.24	NA	3	56	9	24	i	j	456.29	1	1000	1000	0	0
175	6	46	?	N	d	-664.49	NA	7	24	2	56	i	j	451.31	1	1000	1000	0	0
175	6	47	?	N	d	-815.19	NA	4	24	9	56	c	n	445.75	1	1000	1000	0	0
175	6	48	?	P	f	414.34	NA	2	56	9	24	i	n	825.01	0	100	100	0	0
175	6	49	?	N	d	352.67	NA	4	56	9	24	i	n	938.51	1	100	100	0	1
175	6	50	?	N	d	-519.86	NA	8	24	3	56	i	j	675.42	1	1000	100	0	0
175	6	51	?	P	f	128.31	NA	4	24	8	56	c	n	473.73	1	100	1000	0	0
175	6	52	?	P	f	-742.51	NA	2	24	9	56	c	n	509.33	1	1000	100	0	0
175	6	53	?	P	f	330.56	NA	9	24	3	56	i	n	702.32	1	100	100	0	0
175	6	54	?	P	f	267.51	NA	4	56	8	24	i	j	417.44	1	100	1000	0	0
175	6	55	?	N	d	-725.68	NA	9	56	2	24	c	j	514.31	1	1000	1000	0	0
175	6	56	?	P	f	493.27	NA	7	24	4	56	i	n	1225.95	1	100	1000	0	0
175	6	57	?	N	d	127.73	NA	7	56	2	24	c	j	934.55	1	100	100	0	0
175	6	58	?	N	d	-500.51	NA	8	56	4	24	c	j	648.92	1	1000	1000	0	0
175	6	59	?	P	f	-711.45	NA	3	56	9	24	i	j	696.57	1	1000	1000	0	0
175	6	60	?	P	f	133.15	NA	4	24	7	56	c	n	918.17	1	100	100	0	0
175	6	61	?	N	d	74.14	NA	3	24	7	56	c	n	875.93	1	1000	100	0	0
175	6	62	?	P	f	195.56	NA	7	56	2	24	c	j	710.47	1	100	1000	0	0
175	6	63	?	N	d	1141.82	NA	3	24	7	56	c	n	1078.56	1	100	100	0	0
175	6	64	?	P	f	231.12	NA	4	56	7	24	i	j	825.36	1	100	1000	0	0
175	6	65	?	N	d	409.08	NA	7	56	3	24	c	j	854.67	1	100	100	0	0
