subj	block	trial	task_cue	task	choice_resp	choiceRT	choice_acc	topnum	topsize	botnum	botsize	cong	task_resp	taskRT	task_acc	RSI	CSI	altRep	E1
176	1	1	P	P	d	1320.05	1	2	56	7	24	i	j	4808.32	1	100	100	-1	0
176	1	2	N	N	f	1318.49	0	3	24	9	56	c	n	3089.68	1	1000	1000	1	0
176	1	3	N	N	f	2004.87	0	8	56	4	24	c	j	1353.75	1	100	100	0	0
176	1	4	P	P	d	2254.88	1	9	24	2	56	i	n	1119.97	1	1000	1000	1	0
176	1	5	N	N	f	3723.21	0	4	24	7	56	c	n	2605.64	1	1000	100	1	0
176	1	6	N	N	f	1020.42	0	7	56	2	24	c	j	4688.64	1	1000	100	0	0
176	1	7	N	N	f	1303.84	0	9	24	3	56	i	j	1437.83	1	100	1000	0	0
176	1	8	P	P	d	1203.29	1	7	24	2	56	i	n	2187.44	1	1000	100	1	0
176	1	9	P	P	d	1353.54	1	9	24	3	56	i	n	1084.87	1	100	100	0	0
176	1	10	P	P	d	870.17	1	4	56	8	24	i	j	3456.29	1	1000	100	0	0
176	1	11	P	P	d	1286.73	1	8	56	3	24	c	j	1036.3	1	100	1000	0	0
176	1	12	N	N	f	903.17	0	7	56	2	24	c	j	2088.38	1	1000	1000	1	0
176	1	13	N	N	f	503.4	0	9	56	3	24	c	j	1537.32	1	1000	1000	0	0
176	1	14	P	P	f	1687.6	1	4	24	8	56	c	n	5592.33	1	100	100	1	0
176	1	15	P	P	d	2605.27	1	9	56	2	24	c	j	3806.98	1	100	100	0	0
176	1	16	N	N	f	1269.66	0	8	24	3	56	i	j	8445.09	1	100	1000	1	0
176	1	17	N	N	f	1254.25	0	2	24	8	56	c	n	2088.24	1	1000	1000	0	0
176	1	18	N	N	f	2871.86	0	7	24	3	56	i	j	1387.31	1	100	100	0	0
176	1	19	P	P	d	2138.03	1	8	56	2	24	c	j	1420.96	1	1000	100	1	0
176	1	20	P	P	d	703.2	1	3	24	8	56	c	n	1020.18	1	1000	1000	0	0
176	1	21	P	P	d	818.01	1	8	24	2	56	i	n	1403.82	1	1000	100	0	0
176	1	22	P	P	d	870.4	1	8	24	3	56	i	n	1003.9	1	1000	1000	0	0
176	1	23	N	N	f	1670.61	0	4	24	9	56	c	n	1034.82	1	100	1000	1	0
176	1	24	P	P	d	1335.31	1	2	24	8	56	c	n	2286.8	1	1000	1000	1	0
176	1	25	N	N	f	736.6	0	9	24	3	56	i	j	1220.09	1	1000	100	1	0
176	1	26	N	N	f	3890.74	0	4	24	9	56	c	n	2438.01	1	100	100	0	0
176	1	27	P	P	d	1201.66	1	3	56	7	24	i	j	786.65	1	1000	100	1	0
176	1	28	N	N	f	970.23	0	4	24	9	56	c	n	1754.03	1	100	100	1	0
176	1	29	N	N	f	1170.23	0	7	24	3	56	i	j	1252.99	1	1000	1000	0	0
176	1	30	N	N	f	1654.21	0	4	56	7	24	i	n	1537.39	1	1000	100	0	0
176	1	31	P	P	d	1286.98	1	8	56	3	24	c	j	818.11	1	100	1000	1	0
176	1	32	P	P	d	553.01	1	8	56	4	24	c	j	969.63	1	1000	100	0	0
176	1	33	P	P	d	653.0	1	9	56	2	24	c	j	703.33	1	1000	1000	0	0
176	1	34	N	N	f	1503.66	0	9	24	4	56	i	j	2689.29	1	1000	1000	1	0
176	1	35	N	N	f	1036.93	0	3	24	8	56	c	n	1570.9	1	1000	100	0	0
176	1	36	P	P	d	1336.95	1	4	24	7	56	c	n	1486.92	1	1000	100	1	0
176	1	37	N	N	f	1420.59	0	8	56	3	24	c	j	1020.59	1	100	100	1	0
176	1	38	P	P	d	1871.38	1	9	24	4	56	i	n	3072.67	1	100	100	1	0
176	1	39	P	P	d	936.45	1	3	24	8	56	c	n	686.71	1	100	100	0	0
176	1	40	P	P	d	1169.69	1	4	24	7	56	c	n	769.45	1	1000	100	0	0
176	1	41	P	P	d	936.85	1	3	56	8	24	i	j	1270.84	1	1000	1000	0	0
176	1	42	P	P	d	936.63	1	2	24	8	56	c	n	803.72	1	100	1000	0	0
176	1	43	N	N	f	969.54	0	4	56	9	24	i	n	1270.54	1	1000	100	1	0
176	1	44	P	P	d	1003.3	1	9	56	3	24	c	j	1237.77	1	1000	1000	1	0
176	1	45	N	N	f	1954.47	0	8	24	2	56	i	j	1237.09	1	100	100	1	0
176	1	46	P	P	d	1337.05	1	8	24	4	56	i	n	1954.34	1	100	1000	1	0
176	1	47	N	N	f	1170.38	0	8	56	3	24	c	j	970.14	1	100	1000	1	0
176	1	48	N	N	f	970.09	0	4	24	7	56	c	n	736.71	1	100	1000	0	0
176	1	49	N	N	f	803.21	0	2	56	8	24	i	n	1337.21	1	1000	1000	0	0
176	1	50	P	P	d	1187.0	1	4	56	9	24	i	j	1420.04	1	100	100	1	0
176	1	51	P	P	d	1303.89	1	2	56	9	24	i	j	1253.41	1	100	1000	0	0
176	1	52	N	N	f	2169.41	0	4	56	8	24	i	n	1436.5	1	1000	1000	1	0
176	1	53	N	N	f	1136.76	0	9	56	2	24	c	j	1453.81	1	100	1000	0	0
176	1	54	N	N	f	1637.19	0	8	24	3	56	i	j	1070.04	1	1000	100	0	0
176	1	55	N	N	f	1153.58	0	4	56	8	24	i	n	1468.99	1	100	1000	0	0
176	1	56	P	P	d	1068.42	1	2	56	7	24	i	j	1903.73	1	100	1000	1	0
176	1	57	N	N	f	786.13	0	8	56	4	24	c	j	1421.08	1	1000	100	1	0
176	1	58	P	P	d	1837.26	1	9	56	2	24	c	j	2722.05	1	100	100	1	0
176	1	59	P	P	d	1320.71	1	3	56	9	24	i	j	919.64	1	100	100	0	0
176	1	60	N	N	f	1169.64	0	4	56	7	24	i	n	1170.65	1	100	100	1	0
176	1	61	P	P	d	1003.51	1	3	24	9	56	c	n	1771.03	1	100	1000	1	0
176	1	62	P	P	d	1036.82	1	9	24	2	56	i	n	1620.03	1	100	1000	0	0
176	1	63	N	N	f	1170.11	0	4	56	8	24	i	n	2121.22	1	100	1000	1	0
176	1	64	N	N	f	1053.54	0	2	56	9	24	i	n	753.83	1	100	100	0	0
176	1	65	P	P	d	986.85	1	4	56	7	24	i	j	4791.5	1	1000	1000	1	0
176	2	1	N	N	f	1704.32	0	4	24	7	56	c	n	4140.82	1	100	1000	-1	0
176	2	2	P	P	d	1084.9	1	7	56	3	24	c	j	1437.42	1	100	100	1	0
176	2	3	N	N	f	1086.96	0	4	56	8	24	i	n	3105.65	1	1000	1000	1	0
176	2	4	N	N	f	452.23	0	7	24	3	56	i	j	1020.92	1	1000	100	0	0
176	2	5	N	N	f	769.9	0	8	24	4	56	i	j	834.28	1	100	100	0	0
176	2	6	P	P	d	1704.44	1	2	56	9	24	i	j	1003.57	1	100	1000	1	0
176	2	7	P	P	d	669.83	1	9	56	4	24	c	j	636.45	1	100	1000	0	0
176	2	8	P	P	d	3072.38	1	7	24	3	56	i	n	3939.64	1	1000	100	0	0
176	2	9	P	P	d	1404.12	1	9	24	4	56	i	n	1987.79	1	100	1000	0	0
176	2	10	N	N	f	920.4	0	9	56	2	24	c	j	2104.93	1	1000	1000	1	0
176	2	11	P	P	d	1120.14	1	3	24	7	56	c	n	1435.17	1	100	100	1	0
176	2	12	N	N	f	1420.29	0	2	24	9	56	c	n	2354.63	1	1000	100	1	0
176	2	13	P	P	d	1220.61	1	3	24	9	56	c	n	770.12	1	1000	1000	1	0
176	2	14	N	N	f	586.49	0	4	24	9	56	c	n	1287.12	1	100	100	1	0
176	2	15	N	N	f	786.53	0	2	24	8	56	c	n	1251.85	1	100	1000	0	0
176	2	16	P	P	d	769.84	1	8	24	3	56	i	n	2072.2	1	1000	1000	1	0
176	2	17	P	P	d	1337.07	1	8	56	2	24	c	j	2605.2	1	100	100	0	0
176	2	18	P	P	d	653.23	1	4	56	8	24	i	j	1003.34	1	1000	1000	0	0
176	2	19	N	N	f	1854.47	0	3	56	8	24	i	n	936.84	1	100	1000	1	0
176	2	20	P	P	d	903.8	1	7	24	2	56	i	n	1020.71	1	100	100	1	0
176	2	21	N	N	f	1070.36	0	8	56	3	24	c	j	1320.35	1	100	1000	1	0
176	2	22	N	N	f	1620.78	0	7	24	2	56	i	j	1670.59	1	1000	1000	0	0
176	2	23	P	P	d	1103.07	1	3	56	9	24	i	j	1221.02	1	1000	100	1	0
176	2	24	N	N	f	969.35	0	7	56	4	24	c	j	853.35	1	100	100	1	0
176	2	25	N	N	f	1520.64	0	2	24	9	56	c	n	819.85	1	1000	1000	0	0
176	2	26	P	P	d	1637.76	1	8	24	3	56	i	n	1268.28	1	1000	100	1	0
176	2	27	P	P	d	1753.6	1	4	24	8	56	c	n	1036.7	1	1000	1000	0	0
176	2	28	P	P	d	1020.13	1	2	24	8	56	c	n	835.21	1	100	100	0	0
176	2	29	N	N	f	869.48	0	3	56	8	24	i	n	1137.59	1	100	100	1	0
176	2	30	N	N	f	419.59	0	4	56	9	24	i	n	1317.89	1	1000	100	0	0
176	2	31	P	P	d	1136.41	1	7	56	2	24	c	j	737.75	1	1000	1000	1	0
176	2	32	N	N	d	1403.9	0	4	24	7	56	c	n	8395.57	1	1000	1000	1	0
176	2	33	P	P	d	1285.24	1	7	24	2	56	i	n	9796.63	1	100	1000	1	0
176	2	34	N	N	f	920.1	0	3	24	8	56	c	n	1737.59	1	100	1000	1	0
176	2	35	P	P	d	934.84	1	2	56	8	24	i	j	854.03	1	1000	1000	1	0
176	2	36	P	P	d	1320.5	1	3	24	9	56	c	n	635.73	1	100	1000	0	0
176	2	37	P	P	d	535.87	1	4	24	8	56	c	n	1169.22	1	1000	100	0	0
176	2	38	P	P	d	953.25	1	8	24	2	56	i	n	820.53	1	100	100	0	0
176	2	39	P	P	d	569.82	1	7	24	3	56	i	n	536.79	1	1000	1000	0	0
176	2	40	P	P	d	953.43	1	2	56	8	24	i	j	769.59	1	100	1000	0	0
176	2	41	N	N	f	986.66	0	4	56	7	24	i	n	935.17	1	1000	100	1	0
176	2	42	N	N	f	369.23	0	3	24	7	56	c	n	1587.47	1	1000	100	0	0
176	2	43	P	P	d	602.83	1	7	56	2	24	c	j	2488.19	1	1000	100	1	0
176	2	44	P	P	d	486.03	1	7	56	4	24	c	j	1037.19	1	1000	1000	0	0
176	2	45	P	P	d	1019.39	1	3	56	9	24	i	j	919.31	1	100	100	0	0
176	2	46	N	N	f	1103.72	0	7	24	4	56	i	j	1937.57	1	1000	100	1	0
176	2	47	P	P	d	1704.17	1	3	24	8	56	c	n	953.2	1	100	1000	1	0
176	2	48	P	P	d	2805.41	1	2	56	9	24	i	j	1337.37	1	1000	100	0	0
176	2	49	N	N	f	4340.8	0	7	56	3	24	c	j	1520.12	1	1000	100	1	0
176	2	50	N	N	f	3339.48	0	2	24	7	56	c	n	1403.72	1	100	100	0	0
176	2	51	P	P	d	1086.35	1	4	56	7	24	i	j	1487.87	1	100	100	1	0
176	2	52	N	N	f	3973.61	0	8	24	3	56	i	j	1354.66	1	1000	1000	1	0
176	2	53	N	N	f	3656.44	0	8	56	4	24	c	j	1170.29	1	100	1000	0	0
176	2	54	P	P	d	836.67	1	3	24	8	56	c	n	2404.71	1	1000	100	1	0
176	2	55	P	P	d	753.15	1	7	56	2	24	c	j	1001.28	1	1000	100	0	0
176	2	56	N	N	f	1187.15	0	9	24	3	56	i	j	1285.82	1	100	100	1	0
176	2	57	N	N	f	2454.81	0	7	24	4	56	i	n	1620.54	0	100	1000	0	0
176	2	58	N	N	f	1520.79	0	7	56	2	24	c	j	1520.4	1	1000	1000	0	1
176	2	59	N	N	f	986.57	0	3	56	9	24	i	j	1404.54	0	1000	1000	0	0
176	2	60	P	P	d	1771.51	1	9	56	2	24	c	j	4107.23	1	100	1000	1	1
176	2	61	N	N	f	2538.68	0	7	24	4	56	i	j	1037.01	1	100	1000	1	0
176	2	62	N	N	f	884.81	0	3	56	9	24	i	n	2238.2	1	100	1000	0	0
176	2	63	N	N	f	1102.99	0	8	56	4	24	c	j	1005.24	1	100	100	0	0
176	2	64	N	N	f	919.33	0	2	56	9	24	i	n	1003.47	1	100	100	0	0
176	2	65	N	N	f	1086.16	0	7	56	3	24	c	j	986.91	1	1000	100	0	0
176	3	1	N	N	f	1386.51	0	4	24	7	56	c	n	1537.76	1	1000	100	-1	0
176	3	2	P	P	d	1218.45	1	9	56	2	24	c	j	871.03	1	100	1000	1	0
176	3	3	N	N	f	1003.83	0	4	24	9	56	c	n	870.38	1	100	1000	1	0
176	3	4	N	N	f	719.4	0	8	24	3	56	i	j	803.82	1	1000	1000	0	0
176	3	5	P	P	d	1270.44	1	4	24	7	56	c	n	652.99	1	100	1000	1	0
176	3	6	P	P	d	1054.05	1	8	56	2	24	c	j	853.45	1	100	1000	0	0
176	3	7	N	N	f	686.55	0	8	24	4	56	i	j	1270.66	1	1000	1000	1	0
176	3	8	P	P	d	1037.27	1	9	24	3	56	i	n	669.51	1	100	1000	1	0
176	3	9	P	P	d	1036.82	1	4	56	7	24	i	j	703.62	1	100	1000	0	0
176	3	10	N	N	f	734.49	0	2	24	8	56	c	n	769.81	1	1000	100	1	0
176	3	11	N	N	f	1804.21	0	3	24	8	56	c	n	803.62	1	1000	100	0	0
176	3	12	N	N	f	1271.32	0	4	56	8	24	i	j	770.09	0	100	1000	0	0
176	3	13	P	P	d	1237.11	1	8	24	3	56	i	n	1270.84	1	1000	1000	1	1
176	3	14	P	P	d	719.44	1	2	24	8	56	c	n	1186.73	1	1000	100	0	0
176	3	15	N	N	f	1019.72	0	7	56	4	24	c	j	1253.24	1	1000	1000	1	0
176	3	16	N	N	f	1385.55	0	2	24	9	56	c	n	1055.28	1	100	1000	0	0
176	3	17	N	N	f	1070.18	0	3	24	7	56	c	n	1188.19	1	100	100	0	0
176	3	18	N	N	f	868.81	0	9	56	2	24	c	j	1504.6	1	100	1000	0	0
176	3	19	N	N	f	1086.55	0	9	56	4	24	c	j	1604.3	1	100	100	0	0
176	3	20	N	N	f	1454.01	0	8	24	3	56	i	j	954.1	1	100	1000	0	0
176	3	21	P	P	d	1153.47	1	7	24	4	56	i	n	3907.13	1	100	100	1	0
176	3	22	P	P	d	1020.24	1	3	24	7	56	c	n	552.34	1	100	1000	0	0
176	3	23	N	N	d	1904.58	0	7	24	2	56	i	j	1504.17	1	100	1000	1	0
176	3	24	P	P	d	3639.69	1	4	24	8	56	c	n	1270.89	1	1000	100	1	0
176	3	25	P	P	d	1670.79	1	7	24	3	56	i	n	1270.42	1	100	100	0	0
176	3	26	N	N	f	951.45	0	2	56	7	24	i	n	1670.72	1	1000	1000	1	0
176	3	27	P	P	d	1752.16	1	7	24	3	56	i	n	1237.51	1	1000	100	1	0
176	3	28	P	P	d	1269.87	1	4	56	9	24	i	j	1085.91	1	1000	100	0	0
176	3	29	P	P	d	1270.22	1	9	56	3	24	c	j	1154.07	1	100	100	0	0
176	3	30	P	P	d	1670.6	1	4	56	8	24	i	j	735.82	1	1000	1000	0	0
176	3	31	P	P	d	1186.74	1	2	56	9	24	i	j	870.58	1	100	100	0	0
176	3	32	N	N	f	1103.37	0	3	24	7	56	c	n	770.38	1	1000	1000	1	0
176	3	33	P	P	d	703.4	1	4	56	9	24	i	j	1420.66	1	1000	1000	1	0
176	3	34	P	P	d	953.05	1	8	24	2	56	i	n	936.4	1	1000	100	0	0
176	3	35	P	P	d	436.57	1	9	56	4	24	c	j	1002.63	1	1000	100	0	0
176	3	36	N	N	f	1254.65	0	7	24	3	56	i	j	1988.44	1	100	100	1	0
176	3	37	P	P	d	919.75	1	8	56	4	24	c	j	1154.03	1	1000	1000	1	0
176	3	38	N	N	f	1954.56	0	3	24	7	56	c	n	2154.46	1	100	100	1	0
176	3	39	N	N	f	769.89	0	4	56	8	24	i	n	1019.95	1	1000	100	0	0
176	3	40	N	N	f	469.7	0	2	24	9	56	c	n	1087.08	1	1000	1000	0	0
176	3	41	N	N	f	402.27	0	7	24	3	56	i	j	953.18	1	1000	100	0	0
176	3	42	P	P	d	1152.55	1	4	56	7	24	i	j	1271.01	1	100	100	1	0
176	3	43	N	N	f	1119.9	0	2	56	7	24	i	n	1571.83	1	100	1000	1	0
176	3	44	N	N	f	1287.61	0	7	24	3	56	i	j	920.38	1	100	100	0	0
176	3	45	P	P	d	1020.13	1	2	24	8	56	c	n	1019.99	1	100	100	1	0
176	3	46	N	N	f	1220.96	0	3	56	7	24	i	n	1137.45	1	1000	100	1	0
176	3	47	N	N	f	1087.13	0	2	56	7	24	i	n	869.65	1	100	100	0	0
176	3	48	N	N	f	837.06	0	8	56	3	24	c	j	1120.29	1	1000	100	0	0
176	3	49	P	P	d	834.69	1	7	56	4	24	c	j	769.59	1	1000	100	1	0
176	3	50	P	P	d	986.81	1	8	24	2	56	i	n	1103.49	1	1000	1000	0	0
176	3	51	P	P	d	1603.97	1	8	56	3	24	c	j	1404.33	1	1000	1000	0	0
176	3	52	N	N	f	819.32	0	8	24	4	56	i	j	1136.62	1	1000	100	1	0
176	3	53	N	N	f	419.83	0	8	56	2	24	c	j	936.32	1	1000	1000	0	0
176	3	54	P	P	d	1301.69	1	4	56	9	24	i	j	1287.23	1	100	1000	1	0
176	3	55	N	N	f	2237.91	0	9	56	2	24	c	j	1020.22	1	100	100	1	0
176	3	56	P	P	d	1036.09	1	4	56	7	24	i	j	1537.08	1	1000	100	1	0
176	3	57	N	N	f	1036.7	0	2	56	9	24	i	n	1036.6	1	100	100	1	0
176	3	58	P	P	d	919.87	1	4	24	9	56	c	n	1470.97	1	1000	1000	1	0
176	3	59	P	P	d	1419.94	1	9	24	2	56	i	n	937.44	1	100	1000	0	0
176	3	60	P	P	d	1137.05	1	4	24	7	56	c	n	836.35	1	1000	1000	0	0
176	3	61	P	P	d	1503.83	1	3	24	8	56	c	n	1868.66	1	100	100	0	0
176	3	62	N	N	f	2088.36	0	9	56	2	24	c	j	2402.78	1	100	1000	1	0
176	3	63	P	P	d	1320.52	1	9	56	3	24	c	j	1119.54	1	100	100	1	0
176	3	64	N	N	f	853.18	0	8	56	4	24	c	j	1303.36	1	1000	100	1	0
176	3	65	N	N	f	452.63	0	2	56	7	24	i	n	836.39	1	1000	1000	0	0
176	4	1	N	N	f	1103.58	0	3	24	7	56	c	n	3556.43	1	1000	100	-1	0
176	4	2	N	N	f	1670.81	0	8	56	4	24	c	j	3039.13	1	1000	1000	0	0
176	4	3	P	P	d	1420.71	1	2	24	9	56	c	n	769.97	1	1000	1000	1	0
176	4	4	P	P	d	1720.67	1	4	56	7	24	i	j	1687.86	1	1000	1000	0	0
176	4	5	N	N	f	1003.69	0	8	56	2	24	c	j	1971.33	1	1000	1000	1	0
176	4	6	P	P	d	1103.35	1	7	56	4	24	c	j	836.64	1	100	1000	1	0
176	4	7	N	N	f	936.82	0	9	24	3	56	i	j	1237.72	1	100	1000	1	0
176	4	8	N	N	f	1336.48	0	4	56	9	24	i	n	1637.91	1	1000	100	0	0
176	4	9	P	P	d	836.91	1	8	24	2	56	i	n	1238.15	1	1000	100	1	0
176	4	10	P	P	d	869.85	1	4	56	9	24	i	j	1220.4	1	100	100	0	0
176	4	11	P	P	d	986.89	1	8	56	2	24	c	j	853.66	1	100	100	0	0
176	4	12	P	P	d	552.64	1	3	24	8	56	c	n	735.79	1	1000	100	0	0
176	4	13	N	N	f	1020.86	0	4	56	7	24	i	n	952.98	1	100	1000	1	0
176	4	14	P	P	d	1920.92	1	3	56	7	24	i	j	1553.19	1	1000	100	1	0
176	4	15	P	P	d	870.11	1	4	24	8	56	c	n	920.03	1	100	1000	0	0
176	4	16	P	P	d	986.82	1	9	24	2	56	i	n	1203.26	1	1000	1000	0	0
176	4	17	P	P	d	1187.0	1	8	56	3	24	c	j	1237.31	1	1000	100	0	0
176	4	18	N	N	f	1187.22	0	8	56	2	24	c	j	2255.11	1	100	1000	1	0
176	4	19	N	N	f	2171.43	0	9	56	4	24	c	j	1737.41	1	100	100	0	0
176	4	20	N	N	f	369.26	0	2	24	8	56	c	n	1187.41	1	1000	100	0	0
176	4	21	N	N	f	1053.79	0	9	24	4	56	i	j	1137.04	1	1000	1000	0	0
176	4	22	P	P	d	1587.67	1	2	56	9	24	i	j	1737.2	1	100	100	1	0
176	4	23	N	N	f	869.92	0	4	56	7	24	i	n	1086.82	1	1000	100	1	0
176	4	24	N	N	f	1170.53	0	2	56	9	24	i	n	869.8	1	100	100	0	0
176	4	25	N	N	f	719.93	0	4	56	8	24	i	n	1084.85	1	100	1000	0	0
176	4	26	P	P	d	2872.05	1	3	24	7	56	c	n	819.9	1	100	1000	1	0
176	4	27	N	N	f	1437.68	0	9	56	2	24	c	j	1587.43	1	1000	100	1	0
176	4	28	P	P	d	1670.9	1	8	56	4	24	c	j	1087.96	1	1000	1000	1	0
176	4	29	N	N	f	3404.35	0	3	24	9	56	c	n	2688.33	1	100	1000	1	0
176	4	30	N	N	f	1270.06	0	8	24	2	56	i	j	1086.28	1	100	1000	0	0
176	4	31	N	N	f	1737.71	0	4	56	9	24	i	n	887.2	1	1000	1000	0	0
176	4	32	P	P	d	2054.59	1	9	24	3	56	i	n	1670.95	1	100	1000	1	0
176	4	33	P	P	d	903.18	1	9	24	4	56	i	n	1954.65	1	1000	100	0	0
176	4	34	N	N	f	1136.77	0	7	56	3	24	c	j	1070.88	1	100	100	1	0
176	4	35	P	P	d	736.55	1	4	56	7	24	i	j	1620.3	1	100	1000	1	0
176	4	36	N	N	f	1302.27	0	3	24	8	56	c	n	736.55	1	1000	1000	1	0
176	4	37	P	P	d	886.35	1	8	56	2	24	c	j	1219.78	1	1000	100	1	0
176	4	38	P	P	d	2455.07	1	9	56	3	24	c	j	1820.89	1	1000	1000	0	0
176	4	39	N	N	f	953.36	0	9	24	4	56	i	j	1153.15	1	100	100	1	0
176	4	40	N	N	f	1237.11	0	8	24	2	56	i	j	3189.28	1	1000	100	0	0
176	4	41	N	N	f	1253.99	0	4	24	8	56	c	n	1003.76	1	100	1000	0	0
176	4	42	P	P	d	853.28	1	3	24	7	56	c	n	769.83	1	100	100	1	0
176	4	43	N	N	f	1036.87	0	7	24	4	56	i	j	820.5	1	1000	1000	1	0
176	4	44	N	N	f	836.34	0	8	56	2	24	c	j	770.29	1	100	1000	0	0
176	4	45	P	P	d	1620.6	1	8	24	3	56	i	j	1204.36	0	1000	1000	1	0
176	4	46	P	P	d	2922.11	1	7	56	2	24	c	j	820.13	1	100	1000	0	1
176	4	47	N	N	f	903.25	0	8	24	4	56	i	j	1603.92	1	1000	100	1	0
176	4	48	P	P	d	1153.62	1	9	56	3	24	c	j	1253.91	1	100	100	1	0
176	4	49	P	P	d	736.26	1	2	56	7	24	i	j	1220.13	1	1000	100	0	0
176	4	50	N	N	f	1019.95	0	3	24	7	56	c	n	1436.99	1	100	100	1	0
176	4	51	N	N	f	903.72	0	9	24	2	56	i	j	2588.44	1	100	100	0	0
176	4	52	P	P	d	1068.24	1	4	56	7	24	i	j	2104.61	1	1000	1000	1	0
176	4	53	P	P	d	853.39	1	3	56	7	24	i	j	553.4	1	100	1000	0	0
176	4	54	N	N	f	836.36	0	2	56	8	24	i	n	752.98	1	1000	1000	1	0
176	4	55	N	N	f	819.07	0	4	24	8	56	c	n	987.25	1	1000	1000	0	0
176	4	56	P	P	d	1186.71	1	3	24	9	56	c	n	1154.18	1	1000	100	1	0
176	4	57	P	P	d	719.64	1	4	24	7	56	c	n	819.4	1	1000	1000	0	0
176	4	58	P	P	d	803.23	1	7	24	2	56	i	n	1170.06	1	100	100	0	0
176	4	59	N	N	f	886.72	0	4	24	9	56	c	n	1653.94	1	1000	100	1	0
176	4	60	N	N	f	470.21	0	9	56	3	24	c	j	953.84	1	1000	100	0	0
176	4	61	N	N	f	1070.83	0	2	24	7	56	c	n	968.2	1	100	100	0	0
176	4	62	P	P	d	1053.83	1	8	24	4	56	i	n	719.68	1	100	100	1	0
176	4	63	P	P	d	786.68	1	3	24	7	56	c	n	834.51	1	100	100	0	0
176	4	64	P	P	d	719.87	1	9	24	2	56	i	n	769.99	1	100	1000	0	0
176	4	65	N	N	f	870.37	0	3	56	9	24	i	n	886.6	1	100	100	1	0
176	5	1	N	N	f	1687.47	0	9	24	3	56	i	j	1237.31	1	100	1000	-1	0
176	5	2	N	N	f	719.9	0	8	24	2	56	i	j	1370.56	1	1000	100	0	0
176	5	3	P	P	d	952.93	1	3	56	8	24	i	j	3222.41	1	100	1000	1	0
176	5	4	N	N	f	919.93	0	8	56	4	24	c	j	1370.86	1	1000	1000	1	0
176	5	5	N	N	f	786.63	0	3	56	8	24	i	n	887.04	1	100	1000	0	0
176	5	6	N	N	f	552.85	0	8	56	2	24	c	j	1101.18	1	100	100	0	0
176	5	7	P	P	d	534.66	1	9	24	3	56	i	n	1287.11	1	1000	100	1	0
176	5	8	N	N	f	736.68	0	7	24	2	56	i	j	1070.14	1	1000	1000	1	0
176	5	9	P	P	d	602.59	1	4	24	8	56	c	n	803.05	1	1000	100	1	0
176	5	10	N	N	f	886.79	0	3	56	7	24	i	n	1470.95	1	100	1000	1	0
176	5	11	N	N	f	920.08	0	4	24	7	56	c	n	1020.68	1	100	1000	0	0
176	5	12	N	N	f	469.76	0	2	24	8	56	c	n	886.74	1	1000	100	0	0
176	5	13	N	N	f	436.07	0	7	56	3	24	c	j	852.7	1	1000	1000	0	0
176	5	14	P	P	d	686.44	1	8	56	4	24	c	j	903.39	1	1000	1000	1	0
176	5	15	N	N	f	1003.69	0	9	24	2	56	i	j	1252.27	1	100	1000	1	0
176	5	16	N	N	f	869.96	0	4	56	8	24	i	n	836.44	1	1000	100	0	0
176	5	17	N	N	f	352.16	0	3	56	8	24	i	n	519.62	1	1000	1000	0	0
176	5	18	P	P	d	836.83	1	8	56	2	24	c	j	1220.71	1	1000	100	1	0
176	5	19	P	P	d	1070.1	1	3	56	8	24	i	j	1103.54	1	100	1000	0	0
176	5	20	N	N	f	936.77	0	2	56	9	24	i	n	787.25	1	1000	100	1	0
176	5	21	P	P	d	869.47	1	7	24	4	56	i	n	853.41	1	100	1000	1	0
176	5	22	P	P	d	1119.88	1	7	24	3	56	i	n	686.37	1	100	1000	0	0
176	5	23	P	P	d	519.58	1	4	24	7	56	c	n	669.61	1	1000	1000	0	0
176	5	24	N	N	f	936.7	0	2	24	9	56	c	n	887.05	1	100	100	1	0
176	5	25	P	P	d	1203.63	1	3	24	7	56	c	n	837.12	1	1000	1000	1	0
176	5	26	N	N	f	1470.56	0	8	56	4	24	c	j	985.73	1	100	100	1	0
176	5	27	N	N	f	2188.19	0	7	24	2	56	i	j	2404.66	1	1000	1000	0	0
176	5	28	N	N	f	752.8	0	8	24	3	56	i	j	636.62	1	100	1000	0	0
176	5	29	N	N	f	1570.83	0	9	24	2	56	i	j	603.13	1	100	100	0	0
176	5	30	N	N	f	485.88	0	4	24	9	56	c	n	1087.55	1	1000	1000	0	0
176	5	31	P	P	d	620.39	1	9	24	3	56	i	n	769.75	1	1000	1000	1	0
176	5	32	P	P	d	1271.18	1	4	24	8	56	c	n	686.21	1	100	100	0	0
176	5	33	N	N	f	986.73	0	7	56	2	24	c	j	1319.6	1	100	1000	1	0
176	5	34	P	P	d	1420.76	1	4	24	7	56	c	n	986.7	1	100	100	1	0
176	5	35	N	N	f	1036.7	0	3	24	7	56	c	n	1770.98	1	100	1000	1	0
176	5	36	P	P	d	1053.78	1	4	56	9	24	i	j	770.14	1	1000	1000	1	0
176	5	37	N	N	f	1170.55	0	8	24	3	56	i	j	902.4	1	100	100	1	0
176	5	38	P	P	d	667.89	1	7	56	4	24	c	j	902.95	1	100	100	1	0
176	5	39	N	N	f	536.5	0	3	56	9	24	i	n	1470.61	1	100	100	1	0
176	5	40	P	P	d	703.02	1	7	24	4	56	i	n	2054.44	1	100	100	1	0
176	5	41	P	P	d	1654.02	1	3	56	8	24	i	j	1303.64	1	1000	1000	0	0
176	5	42	P	P	d	1019.65	1	2	56	9	24	i	j	1703.86	1	1000	100	0	0
176	5	43	P	P	d	753.2	1	9	24	3	56	i	n	1187.28	1	1000	1000	0	0
176	5	44	P	P	d	653.05	1	2	56	9	24	i	j	1187.06	1	100	100	0	0
176	5	45	P	P	d	636.29	1	9	56	4	24	c	j	786.22	1	100	100	0	0
176	5	46	N	N	f	786.08	0	3	56	9	24	i	n	1404.33	1	1000	1000	1	0
176	5	47	P	P	d	552.84	1	2	56	8	24	i	j	1320.15	1	1000	100	1	0
176	5	48	N	N	f	619.38	0	8	24	3	56	i	j	1086.43	1	1000	100	1	0
176	5	49	P	P	d	969.93	1	2	24	9	56	c	n	936.5	1	100	1000	1	0
176	5	50	P	P	d	619.76	1	7	56	3	24	c	j	1103.95	1	1000	100	0	0
176	5	51	P	P	d	602.75	1	8	56	4	24	c	j	936.56	1	1000	1000	0	0
176	5	52	N	N	f	486.36	0	3	24	9	56	c	n	786.81	1	1000	100	1	0
176	5	53	P	P	d	734.8	1	7	56	4	24	c	j	1003.44	1	100	1000	1	0
176	5	54	P	P	d	1887.44	1	7	24	2	56	i	n	1704.32	1	1000	100	0	0
176	5	55	P	P	d	1336.37	1	3	24	8	56	c	n	2038.05	1	1000	100	0	0
176	5	56	N	N	f	903.38	0	7	56	2	24	c	j	1353.55	1	1000	100	1	0
176	5	57	P	P	d	886.87	1	3	56	8	24	i	j	786.26	1	100	100	1	0
176	5	58	P	P	d	786.48	1	7	56	4	24	c	j	802.79	1	100	1000	0	0
176	5	59	P	P	d	601.05	1	8	24	3	56	i	n	1186.53	1	100	100	0	0
176	5	60	P	P	d	719.85	1	2	24	9	56	c	n	736.32	1	100	1000	0	0
176	5	61	N	N	f	819.8	0	3	24	9	56	c	n	3840.01	1	1000	1000	1	0
176	5	62	N	N	f	653.2	0	2	56	9	24	i	n	1070.88	1	100	100	0	0
176	5	63	N	N	f	669.95	0	4	24	7	56	c	n	904.29	1	100	100	0	0
176	5	64	N	N	f	669.86	0	8	56	2	24	c	j	1087.32	1	1000	100	0	0
176	5	65	N	N	f	1354.25	0	7	56	3	24	c	j	919.95	1	100	1000	0	0
176	6	1	N	N	f	1436.88	0	9	24	4	56	i	j	1721.32	1	100	100	-1	0
176	6	2	N	N	f	619.69	0	2	56	9	24	i	n	903.32	1	1000	100	0	0
176	6	3	P	P	d	1120.3	1	4	24	7	56	c	n	1037.05	1	100	1000	1	0
176	6	4	P	P	d	869.45	1	2	24	7	56	c	n	502.77	1	100	100	0	0
176	6	5	P	P	d	536.21	1	8	56	4	24	c	j	720.08	1	100	100	0	0
176	6	6	P	P	d	1253.84	1	3	24	8	56	c	n	753.05	1	1000	100	0	0
176	6	7	N	N	f	987.09	0	7	56	4	24	c	j	870.08	1	1000	100	1	0
176	6	8	P	P	d	452.56	1	9	24	3	56	i	n	718.59	1	1000	1000	1	0
176	6	9	N	N	f	1537.44	0	8	56	4	24	c	j	720.07	1	100	1000	1	0
176	6	10	P	P	d	2404.62	1	3	56	8	24	i	j	869.26	1	100	1000	1	0
176	6	11	P	P	d	653.2	1	9	24	2	56	i	n	970.54	1	100	1000	0	0
176	6	12	N	N	f	1003.72	0	9	56	4	24	c	j	719.9	1	100	100	1	0
176	6	13	P	P	d	820.06	1	8	24	3	56	i	n	1284.85	1	1000	100	1	0
176	6	14	N	N	f	1020.28	0	2	24	9	56	c	n	902.96	1	1000	100	1	0
176	6	15	N	N	f	802.77	0	8	56	4	24	c	j	736.15	1	100	1000	0	0
176	6	16	N	N	f	402.2	0	8	56	3	24	c	j	870.57	1	1000	100	0	0
176	6	17	N	N	f	652.86	0	2	56	9	24	i	n	786.57	1	1000	1000	0	0
176	6	18	N	N	f	452.71	0	9	24	3	56	i	j	1086.64	1	1000	1000	0	0
176	6	19	P	P	d	1118.35	1	2	24	7	56	c	n	719.87	1	1000	1000	1	0
176	6	20	P	P	d	335.51	1	9	56	4	24	c	j	803.17	1	1000	1000	0	0
176	6	21	N	N	f	1253.87	0	2	24	7	56	c	n	786.44	1	100	100	1	0
176	6	22	N	N	f	536.05	0	9	24	4	56	i	j	786.46	1	100	1000	0	0
176	6	23	N	N	f	686.56	0	2	24	8	56	c	n	752.77	1	100	1000	0	0
176	6	24	N	N	f	1136.92	0	8	24	3	56	i	j	801.3	1	1000	100	0	0
176	6	25	P	P	d	686.07	1	8	56	4	24	c	j	1170.58	1	100	100	1	0
176	6	26	P	P	d	353.04	1	3	56	7	24	i	j	553.2	1	1000	1000	0	0
176	6	27	P	P	d	402.52	1	7	24	4	56	i	n	519.57	1	1000	100	0	0
176	6	28	P	P	d	703.24	1	7	24	3	56	i	n	703.58	1	100	100	0	0
176	6	29	P	P	d	886.58	1	4	56	9	24	i	j	870.17	1	100	1000	0	0
176	6	30	N	N	f	1254.03	0	3	56	8	24	i	n	685.84	1	100	1000	1	0
176	6	31	N	N	f	686.35	0	7	56	2	24	c	j	902.85	1	100	100	0	0
176	6	32	P	P	d	803.57	1	4	24	7	56	c	n	870.01	1	1000	100	1	0
176	6	33	P	P	d	1837.7	1	2	56	9	24	i	j	1337.23	1	1000	100	0	0
176	6	34	P	P	d	1120.48	1	9	56	3	24	c	j	702.03	1	100	1000	0	0
176	6	35	N	N	f	2021.12	0	2	24	9	56	c	n	819.86	1	100	1000	1	0
176	6	36	P	P	d	669.92	1	3	56	9	24	i	j	1120.16	1	1000	100	1	0
176	6	37	P	P	d	1370.64	1	7	56	2	24	c	j	2086.37	1	1000	100	0	0
176	6	38	P	P	d	920.11	1	4	56	7	24	i	j	836.74	1	100	100	0	0
176	6	39	P	P	d	386.1	1	3	24	7	56	c	n	870.03	1	1000	1000	0	0
176	6	40	N	N	f	818.03	0	8	24	2	56	i	j	886.55	1	100	1000	1	0
176	6	41	P	P	d	1153.7	1	4	56	8	24	i	j	936.63	1	100	100	1	0
176	6	42	N	N	f	2070.81	0	3	24	8	56	c	n	970.6	1	1000	1000	1	0
176	6	43	N	N	f	1270.62	0	4	56	9	24	i	n	954.02	1	100	100	0	0
176	6	44	P	P	d	1136.72	1	8	24	2	56	i	n	1504.14	1	100	100	1	0
176	6	45	P	P	d	719.91	1	4	24	7	56	c	n	819.94	1	100	1000	0	0
176	6	46	N	N	f	953.2	0	7	24	3	56	i	j	1203.42	1	1000	100	1	0
176	6	47	N	N	f	1103.8	0	4	24	7	56	c	n	1203.49	1	100	100	0	0
176	6	48	P	P	d	837.43	1	8	56	2	24	c	j	1688.02	1	1000	100	1	0
176	6	49	P	P	d	534.28	1	7	24	3	56	i	n	917.7	1	1000	1000	0	0
176	6	50	N	N	f	836.69	0	4	56	7	24	i	n	2188.31	1	1000	1000	1	0
176	6	51	N	N	f	803.28	0	3	56	7	24	i	n	1787.57	1	100	1000	0	0
176	6	52	P	P	d	769.96	1	8	24	4	56	i	n	1287.67	1	100	1000	1	0
176	6	53	N	N	f	485.93	0	3	56	8	24	i	n	669.67	1	1000	100	1	0
176	6	54	P	P	d	569.77	1	4	24	7	56	c	n	869.19	1	100	100	1	0
176	6	55	N	N	f	736.66	0	3	56	9	24	i	n	853.39	1	100	100	1	0
176	6	56	P	P	d	669.77	1	7	56	2	24	c	j	770.22	1	1000	1000	1	0
176	6	57	N	N	f	836.63	0	9	24	4	56	i	j	720.08	1	100	100	1	0
176	6	58	N	N	f	820.01	0	7	56	3	24	c	j	1738.27	1	1000	1000	0	0
176	6	59	P	P	d	803.4	1	7	56	2	24	c	j	853.57	1	100	1000	1	0
176	6	60	N	N	f	737.08	0	8	24	4	56	i	j	652.9	1	1000	1000	1	0
176	6	61	N	N	f	952.74	0	7	24	2	56	i	j	553.03	1	100	100	0	0
176	6	62	P	P	d	820.11	1	4	56	7	24	i	j	1671.2	1	1000	1000	1	0
176	6	63	N	N	f	2471.72	0	9	56	2	24	c	j	486.74	1	1000	1000	1	0
176	6	64	N	N	f	719.74	0	4	24	7	56	c	n	1520.62	1	1000	1000	0	0
176	6	65	N	N	f	386.06	0	2	24	9	56	c	n	553.46	1	1000	100	0	0
