subj	block	trial	task_cue	task	choice_resp	choiceRT	choice_acc	topnum	topsize	botnum	botsize	cong	task_resp	taskRT	task_acc	RSI	CSI	altRep	E1
177	1	1	?	P	d	1000.28	NA	2	56	9	24	i	j	2728.58	1	100	1000	-1	0
177	1	2	?	N	f	702.74	NA	8	24	4	56	i	n	981.72	0	100	100	0	0
177	1	3	?	P	d	662.72	NA	2	56	8	24	i	j	3321.01	1	100	1000	0	1
177	1	4	?	N	f	548.13	NA	9	56	4	24	c	j	1140.59	1	100	1000	0	0
177	1	5	?	N	f	1138.36	NA	2	56	9	24	i	n	1681.95	1	100	100	0	0
177	1	6	?	N	f	267.16	NA	8	24	4	56	i	n	789.13	0	1000	1000	0	0
177	1	7	?	P	d	326.05	NA	2	56	9	24	i	j	2002.04	1	1000	100	0	1
177	1	8	?	P	d	794.98	NA	7	24	4	56	i	n	777.78	1	100	100	0	0
177	1	9	?	P	d	557.87	NA	7	24	3	56	i	n	784.54	1	100	1000	0	0
177	1	10	?	P	d	1251.02	NA	4	24	9	56	c	n	703.38	1	100	1000	0	0
177	1	11	?	N	f	718.16	NA	3	56	9	24	i	n	790.07	1	100	1000	0	0
177	1	12	?	N	f	687.51	NA	4	56	8	24	i	n	1884.07	1	100	100	0	0
177	1	13	?	P	d	361.27	NA	8	56	3	24	c	j	764.92	1	100	1000	0	0
177	1	14	?	P	d	572.61	NA	2	56	9	24	i	j	2449.07	1	100	100	0	0
177	1	15	?	N	f	526.89	NA	8	24	3	56	i	n	730.45	0	100	1000	0	0
177	1	16	?	N	f	458.17	NA	4	56	7	24	i	j	819.26	0	1000	100	0	1
177	1	17	?	N	f	1933.29	NA	2	24	7	56	c	n	1692.82	1	100	100	0	1
177	1	18	?	P	d	36.81	NA	7	24	4	56	i	n	791.35	1	1000	1000	0	0
177	1	19	?	P	d	1264.02	NA	3	24	9	56	c	n	756.33	1	100	1000	0	0
177	1	20	?	P	d	-484.94	NA	9	24	4	56	i	n	1406.82	1	1000	1000	0	0
177	1	21	?	N	f	755.11	NA	9	56	2	24	c	j	850.89	1	100	100	0	0
177	1	22	?	N	f	-80.03	NA	7	56	4	24	c	j	1057.82	1	1000	1000	0	0
177	1	23	?	N	f	474.87	NA	3	56	9	24	i	n	841.96	1	1000	100	0	0
177	1	24	?	P	d	386.66	NA	9	56	4	24	c	j	892.93	1	100	100	0	0
177	1	25	?	P	d	37.9	NA	3	24	7	56	c	n	737.7	1	1000	100	0	0
177	1	26	?	N	f	-576.15	NA	7	56	2	24	c	j	1563.85	1	1000	100	0	0
177	1	27	?	N	f	672.29	NA	9	24	3	56	i	j	1479.86	1	100	1000	0	0
177	1	28	?	N	f	-512.16	NA	8	56	2	24	c	j	704.53	1	1000	1000	0	0
177	1	29	?	P	d	821.13	NA	3	56	9	24	i	j	1997.39	1	100	100	0	0
177	1	30	?	P	d	379.21	NA	4	56	9	24	i	j	1825.15	1	100	100	0	0
177	1	31	?	P	d	272.71	NA	2	24	8	56	c	n	1008.08	1	100	1000	0	0
177	1	32	?	P	d	-618.17	NA	3	24	9	56	c	n	791.46	1	1000	100	0	0
177	1	33	?	P	d	-359.54	NA	4	56	8	24	i	j	1341.81	1	1000	1000	0	0
177	1	34	?	N	f	396.99	NA	3	24	9	56	c	n	1240.5	1	100	100	0	0
177	1	35	?	N	f	317.31	NA	4	24	9	56	c	n	530.99	1	100	100	0	0
177	1	36	?	N	f	-701.08	NA	7	24	3	56	i	j	2158.21	1	1000	1000	0	0
177	1	37	?	N	f	-371.13	NA	2	24	7	56	c	n	1207.03	1	1000	100	0	0
177	1	38	?	P	d	-394.32	NA	7	56	3	24	c	j	2061.01	1	1000	100	0	0
177	1	39	?	N	f	1467.98	NA	4	24	8	56	c	n	2448.39	1	100	100	0	0
177	1	40	?	P	d	108.37	NA	7	24	3	56	i	n	1696.43	1	1000	1000	0	0
177	1	41	?	N	f	-556.85	NA	4	24	9	56	c	n	1966.09	1	1000	1000	0	0
177	1	42	?	N	f	548.5	NA	8	24	2	56	i	j	1174.88	1	1000	100	0	0
177	1	43	?	P	d	341.12	NA	9	56	4	24	c	j	1403.93	1	100	100	0	0
177	1	44	?	P	d	313.65	NA	8	56	2	24	c	j	598.96	1	100	1000	0	0
177	1	45	?	P	d	685.72	NA	3	24	9	56	c	n	824.63	1	1000	100	0	0
177	1	46	?	N	f	-145.54	NA	7	24	4	56	i	j	2905.22	1	1000	1000	0	0
177	1	47	?	P	d	987.16	NA	2	24	9	56	c	n	746.94	1	1000	1000	0	0
177	1	48	?	N	f	322.69	NA	8	56	4	24	c	j	1043.09	1	1000	100	0	0
177	1	49	?	P	d	1354.15	NA	3	24	7	56	c	n	2670.48	1	100	1000	0	0
177	1	50	?	N	f	616.0	NA	2	56	7	24	i	n	1342.99	1	100	1000	0	0
177	1	51	?	N	f	330.06	NA	3	56	9	24	i	n	1488.98	1	1000	100	0	0
177	1	52	?	N	f	404.08	NA	7	56	4	24	c	j	1039.7	1	1000	1000	0	0
177	1	53	?	P	d	56.83	NA	3	56	9	24	i	j	1437.73	1	1000	100	0	0
177	1	54	?	P	d	582.5	NA	8	56	2	24	c	j	668.97	1	1000	1000	0	0
177	1	55	?	P	d	346.86	NA	9	24	3	56	i	n	924.99	1	100	1000	0	0
177	1	56	?	P	d	474.98	NA	7	24	2	56	i	n	1336.01	1	1000	1000	0	0
177	1	57	?	N	f	559.78	NA	4	24	8	56	c	n	1787.51	1	1000	1000	0	0
177	1	58	?	N	f	402.44	NA	7	24	2	56	i	n	892.68	0	1000	100	0	0
177	1	59	?	N	f	476.05	NA	9	56	4	24	c	j	1011.45	1	1000	100	0	1
177	1	60	?	P	d	286.95	NA	2	24	8	56	c	n	2502.74	1	1000	1000	0	0
177	1	61	?	N	f	2319.17	NA	7	56	4	24	c	j	894.02	1	100	1000	0	0
177	1	62	?	P	d	-535.64	NA	9	24	3	56	i	n	4102.15	1	1000	100	0	0
177	1	63	?	N	f	416.15	NA	8	56	2	24	c	j	849.68	1	100	100	0	0
177	1	64	?	N	f	855.61	NA	8	24	4	56	i	j	2131.29	1	100	1000	0	0
177	1	65	?	P	d	121.45	NA	9	24	2	56	i	n	1052.82	1	100	100	0	0
177	2	1	?	P	d	345.05	NA	9	24	3	56	i	n	3264.64	1	1000	100	-1	0
177	2	2	?	N	f	2121.99	NA	4	56	8	24	i	n	5180.74	1	100	100	0	0
177	2	3	?	P	d	-605.78	NA	8	24	2	56	i	n	1882.5	1	1000	1000	0	0
177	2	4	?	P	d	-127.31	NA	4	24	7	56	c	j	2361.27	0	1000	1000	0	0
177	2	5	?	N	f	1050.72	NA	3	56	7	24	i	n	5598.4	1	1000	100	0	1
177	2	6	?	P	d	433.04	NA	4	24	8	56	c	n	2187.06	1	100	1000	0	0
177	2	7	?	N	f	1167.19	NA	9	56	2	24	c	j	1445.62	1	1000	1000	0	0
177	2	8	?	P	d	365.98	NA	3	56	9	24	i	j	2841.55	1	1000	100	0	0
177	2	9	?	P	d	731.34	NA	9	24	2	56	i	j	6303.65	0	1000	1000	0	0
177	2	10	?	N	f	-1.7	NA	4	24	7	56	c	n	7138.04	1	1000	100	0	1
177	2	11	?	P	d	1078.75	NA	9	56	3	24	c	j	1350.57	1	100	1000	0	0
177	2	12	?	P	d	719.93	NA	8	24	4	56	i	n	1274.54	1	1000	1000	0	0
177	2	13	?	N	f	2308.04	NA	7	24	2	56	i	j	917.67	1	1000	1000	0	0
177	2	14	?	N	f	721.6	NA	4	24	7	56	c	n	1210.15	1	100	100	0	0
177	2	15	?	N	f	566.77	NA	8	24	2	56	i	j	985.06	1	100	1000	0	0
177	2	16	?	P	d	435.61	NA	3	24	9	56	c	n	2343.17	1	100	1000	0	0
177	2	17	?	P	d	611.24	NA	7	24	4	56	i	n	505.51	1	100	1000	0	0
177	2	18	?	P	d	271.66	NA	9	24	2	56	i	n	1266.84	1	100	100	0	0
177	2	19	?	N	f	83.45	NA	8	56	3	24	c	j	884.58	1	1000	1000	0	0
177	2	20	?	N	f	215.72	NA	4	56	7	24	i	n	1444.88	1	100	1000	0	0
177	2	21	?	N	f	489.96	NA	9	56	2	24	c	j	1154.78	1	100	1000	0	0
177	2	22	?	P	d	382.24	NA	8	56	4	24	c	j	802.77	1	100	1000	0	0
177	2	23	?	P	d	-533.64	NA	2	56	9	24	i	j	561.69	1	1000	100	0	0
177	2	24	?	P	d	-479.2	NA	9	56	4	24	c	j	1087.24	1	1000	1000	0	0
177	2	25	?	N	f	516.24	NA	9	56	3	24	c	j	1784.11	1	100	100	0	0
177	2	26	?	N	f	157.83	NA	9	24	4	56	i	j	1179.7	1	100	100	0	0
177	2	27	?	N	f	108.52	NA	8	24	2	56	i	j	562.09	1	100	100	0	0
177	2	28	?	N	f	-816.32	NA	4	24	8	56	c	n	1177.43	1	1000	1000	0	0
177	2	29	?	N	f	-863.78	NA	3	24	9	56	c	n	827.22	1	1000	100	0	0
177	2	30	?	N	f	-806.85	NA	4	24	7	56	c	n	1232.33	1	1000	100	0	0
177	2	31	?	N	f	235.93	NA	3	24	8	56	c	n	880.47	1	100	1000	0	0
177	2	32	?	P	d	537.88	NA	8	56	2	24	c	j	2997.13	1	100	1000	0	0
177	2	33	?	P	d	-828.12	NA	3	24	8	56	c	n	715.48	1	1000	1000	0	0
177	2	34	?	P	d	-823.86	NA	4	56	7	24	i	j	742.85	1	1000	100	0	0
177	2	35	?	P	d	128.03	NA	9	56	3	24	c	j	576.18	1	100	100	0	0
177	2	36	?	P	d	39.12	NA	2	24	9	56	c	n	918.35	1	100	100	0	0
177	2	37	?	P	d	-871.55	NA	9	56	4	24	c	j	582.12	1	1000	100	0	0
177	2	38	?	P	d	22.33	NA	2	56	8	24	i	j	648.52	1	100	1000	0	0
177	2	39	?	P	d	-0.98	NA	4	56	8	24	i	j	646.85	1	100	1000	0	0
177	2	40	?	P	d	-3.9	NA	3	56	7	24	i	j	978.11	1	100	100	0	0
177	2	41	?	P	d	1029.18	NA	4	24	7	56	c	n	1329.3	1	1000	100	0	0
177	2	42	?	P	d	693.6	NA	7	24	2	56	i	n	1012.3	1	100	1000	0	0
177	2	43	?	N	f	-748.98	NA	4	56	9	24	i	n	3190.73	1	1000	1000	0	0
177	2	44	?	N	f	-182.5	NA	9	24	2	56	i	j	1619.17	1	1000	1000	0	0
177	2	45	?	N	f	86.89	NA	4	24	7	56	c	n	2402.6	1	100	100	0	0
177	2	46	?	P	d	-439.93	NA	7	56	2	24	c	j	2859.48	1	1000	100	0	0
177	2	47	?	P	d	541.95	NA	4	56	9	24	i	j	1011.05	1	1000	100	0	0
177	2	48	?	P	d	568.04	NA	7	24	3	56	i	n	745.38	1	100	100	0	0
177	2	49	?	P	d	-726.2	NA	2	24	9	56	c	n	794.66	1	1000	1000	0	0
177	2	50	?	N	f	491.27	NA	8	56	4	24	c	j	1932.16	1	100	100	0	0
177	2	51	?	N	f	493.03	NA	9	56	3	24	c	j	809.46	1	1000	100	0	0
177	2	52	?	N	f	319.94	NA	2	24	7	56	c	n	870.23	1	100	1000	0	0
177	2	53	?	N	f	-588.91	NA	3	56	7	24	i	n	1697.8	1	1000	100	0	0
177	2	54	?	N	f	-837.18	NA	7	24	4	56	i	n	4936.31	0	1000	1000	0	0
177	2	55	?	P	d	325.83	NA	3	56	8	24	i	j	2439.24	1	100	1000	0	1
177	2	56	?	P	d	77.92	NA	7	24	4	56	i	n	777.48	1	100	1000	0	0
177	2	57	?	P	d	141.02	NA	9	56	3	24	c	j	808.54	1	100	100	0	0
177	2	58	?	P	d	-887.66	NA	8	24	4	56	i	n	645.76	1	1000	100	0	0
177	2	59	?	P	d	17.32	NA	8	24	3	56	i	n	818.87	1	100	100	0	0
177	2	60	?	P	d	-904.56	NA	8	56	2	24	c	j	1135.12	1	1000	100	0	0
177	2	61	?	N	f	529.51	NA	3	56	7	24	i	n	2984.03	1	1000	100	0	0
177	2	62	?	N	f	-689.37	NA	9	56	2	24	c	j	2091.26	1	1000	1000	0	0
177	2	63	?	N	f	632.45	NA	8	24	3	56	i	j	1400.44	1	100	100	0	0
177	2	64	?	N	f	-564.52	NA	7	24	4	56	i	j	2261.33	1	1000	1000	0	0
177	2	65	?	N	f	342.64	NA	3	24	8	56	c	n	866.68	1	100	100	0	0
177	3	1	?	N	f	2047.57	NA	8	24	2	56	i	j	2173.04	1	100	1000	-1	0
177	3	2	?	N	f	-508.32	NA	4	56	9	24	i	n	967.37	1	1000	1000	0	0
177	3	3	?	N	f	-686.69	NA	9	24	2	56	i	j	4365.95	1	1000	1000	0	0
177	3	4	?	P	d	784.87	NA	4	24	9	56	c	n	4821.49	1	100	1000	0	0
177	3	5	?	P	d	519.42	NA	3	24	9	56	c	n	655.29	1	100	1000	0	0
177	3	6	?	P	d	484.36	NA	8	56	2	24	c	j	1014.97	1	100	100	0	0
177	3	7	?	P	d	-757.53	NA	9	24	3	56	i	n	1337.0	1	1000	1000	0	0
177	3	8	?	P	d	583.37	NA	9	56	4	24	c	j	1548.3	1	100	100	0	0
177	3	9	?	N	f	345.21	NA	9	24	3	56	i	j	1983.11	1	1000	100	0	0
177	3	10	?	N	f	404.19	NA	4	56	7	24	i	n	1614.47	1	100	100	0	0
177	3	11	?	N	f	199.51	NA	7	24	2	56	i	j	4620.14	1	100	100	0	0
177	3	12	?	P	d	-655.35	NA	3	24	9	56	c	n	1237.74	1	1000	100	0	0
177	3	13	?	P	d	392.53	NA	7	24	2	56	i	n	1676.14	1	100	100	0	0
177	3	14	?	P	d	93.65	NA	7	24	4	56	i	n	585.92	1	100	100	0	0
177	3	15	?	P	d	-836.71	NA	3	56	9	24	i	n	988.17	0	1000	100	0	0
177	3	16	?	P	d	259.3	NA	2	56	7	24	i	n	808.43	0	100	1000	0	1
177	3	17	?	N	f	1511.03	NA	4	56	8	24	i	j	12003.97	0	100	1000	0	1
177	3	18	?	N	f	-425.98	NA	7	24	2	56	i	j	2286.86	1	1000	1000	0	1
177	3	19	?	N	f	178.1	NA	9	56	4	24	c	j	935.39	1	100	100	0	0
177	3	20	?	N	f	-714.03	NA	8	56	2	24	c	j	952.91	1	1000	1000	0	0
177	3	21	?	N	f	-477.11	NA	4	24	8	56	c	n	1044.58	1	1000	1000	0	0
177	3	22	?	N	f	140.96	NA	8	56	2	24	c	j	863.1	1	100	1000	0	0
177	3	23	?	N	f	-747.68	NA	8	24	3	56	i	j	1031.77	1	1000	1000	0	0
177	3	24	?	N	f	-835.71	NA	2	24	8	56	c	n	1011.34	1	1000	1000	0	0
177	3	25	?	P	d	692.65	NA	3	24	9	56	c	n	775.3	1	100	100	0	0
177	3	26	?	P	d	-347.01	NA	2	24	9	56	c	n	993.45	1	1000	1000	0	0
177	3	27	?	N	f	1198.11	NA	8	24	4	56	i	j	1264.05	1	100	100	0	0
177	3	28	?	N	f	98.56	NA	2	24	7	56	c	n	961.54	1	100	1000	0	0
177	3	29	?	P	d	-423.26	NA	3	56	7	24	i	j	2008.51	1	1000	1000	0	0
177	3	30	?	P	d	-798.36	NA	4	56	7	24	i	j	757.16	1	1000	100	0	0
177	3	31	?	P	d	-832.38	NA	7	56	3	24	c	j	408.06	1	1000	100	0	0
177	3	32	?	P	d	-718.59	NA	8	56	4	24	c	j	1319.38	1	1000	1000	0	0
177	3	33	?	N	f	234.0	NA	3	56	8	24	i	n	1705.51	1	100	1000	0	0
177	3	34	?	N	f	157.53	NA	7	24	4	56	i	j	987.17	1	100	1000	0	0
177	3	35	?	N	f	-757.82	NA	3	56	8	24	i	n	1000.27	1	1000	100	0	0
177	3	36	?	N	f	203.21	NA	8	24	2	56	i	j	904.48	1	100	1000	0	0
177	3	37	?	N	f	133.55	NA	3	24	9	56	c	n	902.71	1	100	100	0	0
177	3	38	?	N	f	121.99	NA	4	56	9	24	i	n	1222.25	1	100	100	0	0
177	3	39	?	N	f	-531.22	NA	2	56	8	24	i	n	574.2	1	1000	100	0	0
177	3	40	?	P	d	260.73	NA	7	56	3	24	c	j	924.14	1	1000	100	0	0
177	3	41	?	P	d	-810.04	NA	9	24	2	56	i	j	1014.39	0	1000	1000	0	0
177	3	42	?	N	f	-397.73	NA	8	56	4	24	c	j	1720.38	1	1000	100	0	1
177	3	43	?	P	d	481.31	NA	7	56	3	24	c	j	1195.88	1	1000	1000	0	0
177	3	44	?	N	f	-197.45	NA	4	56	7	24	i	n	2380.19	1	1000	1000	0	0
177	3	45	?	P	d	-489.71	NA	7	24	2	56	i	n	2460.89	1	1000	100	0	0
177	3	46	?	P	d	-739.93	NA	9	56	4	24	c	j	1747.41	1	1000	1000	0	0
177	3	47	?	N	f	267.32	NA	3	56	7	24	i	n	1722.97	1	100	1000	0	0
177	3	48	?	N	f	-608.96	NA	9	24	2	56	i	j	2003.36	1	1000	100	0	0
177	3	49	?	N	f	391.23	NA	7	24	3	56	i	j	1101.1	1	100	100	0	0
177	3	50	?	P	d	-135.73	NA	4	24	8	56	c	n	1080.98	1	1000	1000	0	0
177	3	51	?	P	d	110.57	NA	8	56	2	24	c	j	810.31	1	100	1000	0	0
177	3	52	?	P	d	-851.93	NA	9	24	4	56	i	n	624.42	1	1000	100	0	0
177	3	53	?	P	d	-887.84	NA	9	56	2	24	c	j	690.31	1	1000	100	0	0
177	3	54	?	P	d	12.08	NA	8	56	3	24	c	j	1161.73	1	100	1000	0	0
177	3	55	?	N	f	1310.36	NA	2	24	8	56	c	n	2216.56	1	1000	100	0	0
177	3	56	?	N	f	482.93	NA	4	24	8	56	c	n	534.83	1	100	100	0	0
177	3	57	?	N	f	142.9	NA	3	24	9	56	c	n	854.82	1	100	1000	0	0
177	3	58	?	N	f	-609.97	NA	4	24	9	56	c	n	708.9	1	1000	100	0	0
177	3	59	?	N	f	26.92	NA	9	24	2	56	i	j	991.32	1	100	100	0	0
177	3	60	?	P	d	1172.64	NA	4	24	9	56	c	n	5947.61	1	100	100	0	0
177	3	61	?	P	d	-741.37	NA	3	24	7	56	c	n	645.98	1	1000	100	0	0
177	3	62	?	P	d	75.26	NA	7	24	4	56	i	n	470.65	1	100	1000	0	0
177	3	63	?	P	d	67.15	NA	9	56	2	24	c	j	936.41	1	100	100	0	0
177	3	64	?	P	d	87.46	NA	4	56	7	24	i	j	1108.46	1	100	1000	0	0
177	3	65	?	P	d	250.2	NA	8	56	3	24	c	j	822.82	1	100	1000	0	0
177	4	1	?	P	d	2991.73	NA	2	56	9	24	i	j	6204.84	1	100	1000	-1	0
177	4	2	?	P	d	-519.98	NA	3	24	9	56	c	n	957.16	1	1000	100	0	0
177	4	3	?	P	d	1734.43	NA	4	24	9	56	c	n	1074.1	1	100	1000	0	0
177	4	4	?	N	f	216.13	NA	8	24	2	56	i	j	1716.3	1	100	1000	0	0
177	4	5	?	N	f	-532.24	NA	9	56	3	24	c	j	842.54	1	1000	1000	0	0
177	4	6	?	N	f	217.53	NA	2	56	7	24	i	n	941.65	1	1000	100	0	0
177	4	7	?	N	f	631.67	NA	4	24	9	56	c	n	600.9	1	1000	1000	0	0
177	4	8	?	P	d	10.58	NA	3	56	7	24	i	j	1645.19	1	1000	100	0	0
177	4	9	?	P	d	130.08	NA	7	56	2	24	c	j	442.14	1	100	100	0	0
177	4	10	?	P	d	-526.25	NA	8	56	3	24	c	j	814.2	1	1000	1000	0	0
177	4	11	?	P	d	-544.28	NA	2	24	7	56	c	n	741.8	1	1000	100	0	0
177	4	12	?	N	f	306.18	NA	3	56	7	24	i	n	3327.11	1	1000	100	0	0
177	4	13	?	N	f	149.4	NA	2	56	7	24	i	n	10040.46	1	100	1000	0	0
177	4	14	?	P	d	-600.95	NA	3	24	9	56	c	n	4521.09	1	1000	100	0	0
177	4	15	?	P	d	-620.0	NA	2	24	7	56	c	n	844.82	1	1000	1000	0	0
177	4	16	?	P	d	-614.81	NA	3	56	9	24	i	j	1265.89	1	1000	1000	0	0
177	4	17	?	P	d	236.33	NA	4	56	7	24	i	j	656.96	1	100	100	0	0
177	4	18	?	P	d	-810.37	NA	3	56	7	24	i	j	464.05	1	1000	100	0	0
177	4	19	?	P	d	-1.17	NA	2	56	8	24	i	j	320.01	1	100	1000	0	0
177	4	20	?	N	f	1067.51	NA	9	56	4	24	c	j	1007.61	1	100	1000	0	0
177	4	21	?	N	f	127.01	NA	8	56	2	24	c	j	505.48	1	100	1000	0	0
177	4	22	?	N	f	45.91	NA	9	56	4	24	c	j	531.17	1	100	1000	0	0
177	4	23	?	N	f	32.47	NA	2	24	8	56	c	n	557.19	1	100	1000	0	0
177	4	24	?	N	f	-764.95	NA	9	56	4	24	c	j	868.68	1	1000	1000	0	0
177	4	25	?	P	d	323.75	NA	7	24	3	56	i	n	998.27	1	100	100	0	0
177	4	26	?	P	d	-656.07	NA	4	56	8	24	i	j	988.78	1	1000	1000	0	0
177	4	27	?	P	d	33.32	NA	8	24	3	56	i	n	1047.57	1	100	1000	0	0
177	4	28	?	N	f	-589.18	NA	8	24	4	56	i	j	1246.51	1	1000	1000	0	0
177	4	29	?	P	d	850.83	NA	2	56	9	24	i	j	986.18	1	1000	100	0	0
177	4	30	?	N	f	615.92	NA	4	24	9	56	c	n	1187.83	1	100	100	0	0
177	4	31	?	P	d	955.77	NA	3	56	8	24	i	j	2616.85	1	100	100	0	0
177	4	32	?	P	d	-82.51	NA	7	24	2	56	i	n	1135.86	1	1000	100	0	0
177	4	33	?	P	d	334.26	NA	4	56	9	24	i	j	1554.88	1	100	1000	0	0
177	4	34	?	N	f	425.68	NA	7	56	3	24	c	j	2035.55	1	100	1000	0	0
177	4	35	?	N	f	394.82	NA	7	56	4	24	c	j	857.49	1	100	100	0	0
177	4	36	?	N	f	-461.08	NA	8	56	3	24	c	j	712.08	1	1000	100	0	0
177	4	37	?	N	f	804.96	NA	4	24	7	56	c	n	1063.1	1	1000	1000	0	0
177	4	38	?	P	d	130.7	NA	3	24	9	56	c	j	792.03	0	1000	100	0	0
177	4	39	?	P	d	1455.43	NA	8	24	2	56	i	j	859.95	0	100	100	0	1
177	4	40	?	P	d	-468.75	NA	4	56	8	24	i	j	1715.91	1	1000	100	0	1
177	4	41	?	P	d	-81.53	NA	9	56	2	24	c	j	528.86	1	1000	100	0	0
177	4	42	?	N	f	-28.02	NA	7	56	3	24	c	j	2258.52	1	1000	100	0	0
177	4	43	?	N	f	113.53	NA	2	56	8	24	i	n	4998.95	1	1000	1000	0	0
177	4	44	?	N	f	252.72	NA	9	56	3	24	c	j	1961.27	1	1000	100	0	0
177	4	45	?	N	f	365.61	NA	7	56	4	24	c	j	658.23	1	100	100	0	0
177	4	46	?	P	d	2029.8	NA	3	24	9	56	c	n	1621.2	1	100	100	0	0
177	4	47	?	P	d	-138.9	NA	7	24	2	56	i	j	1179.45	0	1000	1000	0	0
177	4	48	?	N	f	682.13	NA	3	56	9	24	i	n	1412.02	1	100	100	0	1
177	4	49	?	N	f	62.59	NA	2	24	9	56	c	n	1216.79	1	1000	1000	0	0
177	4	50	?	P	d	990.6	NA	9	24	4	56	i	n	2730.94	1	100	100	0	0
177	4	51	?	N	f	545.89	NA	2	56	9	24	i	n	1588.37	1	1000	1000	0	0
177	4	52	?	N	f	449.71	NA	7	24	4	56	i	j	838.86	1	100	100	0	0
177	4	53	?	N	f	405.39	NA	2	56	9	24	i	n	1029.9	1	100	1000	0	0
177	4	54	?	P	d	323.19	NA	3	24	7	56	c	n	671.61	1	100	1000	0	0
177	4	55	?	P	d	-272.46	NA	9	24	2	56	i	n	1867.28	1	1000	1000	0	0
177	4	56	?	P	d	303.49	NA	7	24	3	56	i	n	859.52	1	100	1000	0	0
177	4	57	?	P	d	172.8	NA	2	24	8	56	c	n	570.41	1	100	1000	0	0
177	4	58	?	N	f	43.23	NA	3	56	8	24	i	n	8584.05	1	1000	100	0	0
177	4	59	?	N	f	-414.33	NA	9	56	4	24	c	j	892.98	1	1000	1000	0	0
177	4	60	?	P	d	409.98	NA	3	24	8	56	c	n	1598.5	1	100	100	0	0
177	4	61	?	P	d	-151.1	NA	2	56	9	24	i	j	1955.1	1	1000	1000	0	0
177	4	62	?	P	d	460.54	NA	9	56	4	24	c	j	922.51	1	100	100	0	0
177	4	63	?	N	f	1441.52	NA	2	24	9	56	c	n	1380.95	1	100	100	0	0
177	4	64	?	N	f	571.67	NA	8	24	4	56	i	j	962.07	1	100	100	0	0
177	4	65	?	N	f	491.36	NA	8	24	3	56	i	j	671.98	1	100	1000	0	0
177	5	1	?	N	f	830.96	NA	8	24	3	56	i	j	1539.0	1	1000	100	-1	0
177	5	2	?	P	d	-485.67	NA	9	56	4	24	c	j	1788.97	1	1000	1000	0	0
177	5	3	?	N	f	313.63	NA	3	24	7	56	c	n	1139.77	1	1000	1000	0	0
177	5	4	?	N	f	-215.01	NA	2	24	9	56	c	n	2172.82	1	1000	100	0	0
177	5	5	?	P	d	450.44	NA	9	24	3	56	i	n	5192.65	1	100	1000	0	0
177	5	6	?	P	d	515.88	NA	9	24	2	56	i	n	635.52	1	1000	1000	0	0
177	5	7	?	P	d	322.96	NA	9	24	3	56	i	n	1166.62	1	1000	100	0	0
177	5	8	?	N	f	247.24	NA	9	24	4	56	i	j	678.37	1	1000	1000	0	0
177	5	9	?	N	f	-434.43	NA	9	56	3	24	c	j	1504.05	1	1000	100	0	0
177	5	10	?	P	d	401.97	NA	4	56	8	24	i	j	487.21	1	1000	1000	0	0
177	5	11	?	P	d	336.39	NA	8	56	3	24	c	j	340.99	1	100	1000	0	0
177	5	12	?	P	d	172.31	NA	7	24	4	56	i	n	726.1	1	100	1000	0	0
177	5	13	?	P	d	342.43	NA	2	56	9	24	i	j	708.73	1	100	100	0	0
177	5	14	?	N	f	520.66	NA	3	24	7	56	c	n	1444.78	1	100	1000	0	0
177	5	15	?	N	f	490.29	NA	2	24	9	56	c	n	559.26	1	100	100	0	0
177	5	16	?	N	f	342.88	NA	8	56	4	24	c	j	719.6	1	100	100	0	0
177	5	17	?	N	f	482.44	NA	2	24	9	56	c	n	421.4	1	100	100	0	0
177	5	18	?	N	f	384.24	NA	4	24	7	56	c	j	603.04	0	100	100	0	0
177	5	19	?	P	d	359.08	NA	2	56	8	24	i	j	1157.85	1	100	100	0	1
177	5	20	?	P	d	-337.52	NA	9	24	3	56	i	n	1037.47	1	1000	1000	0	0
177	5	21	?	P	d	-616.43	NA	8	24	2	56	i	n	792.42	1	1000	100	0	0
177	5	22	?	P	d	421.69	NA	7	24	3	56	i	n	534.0	1	100	1000	0	0
177	5	23	?	N	f	337.42	NA	8	56	2	24	c	j	1197.58	1	1000	1000	0	0
177	5	24	?	N	f	245.31	NA	7	56	3	24	c	j	586.75	1	100	1000	0	0
177	5	25	?	N	f	156.24	NA	7	56	4	24	c	j	456.82	1	100	1000	0	0
177	5	26	?	N	f	182.55	NA	2	56	8	24	i	n	782.76	1	100	100	0	0
177	5	27	?	N	f	158.02	NA	7	24	3	56	i	j	806.98	1	100	1000	0	0
177	5	28	?	N	f	-742.59	NA	2	56	8	24	i	n	666.41	1	1000	100	0	0
177	5	29	?	N	f	586.66	NA	7	24	3	56	i	j	678.51	1	100	100	0	0
177	5	30	?	P	d	513.92	NA	8	24	4	56	i	n	723.81	1	100	100	0	0
177	5	31	?	P	d	362.39	NA	3	24	9	56	c	n	531.51	1	100	100	0	0
177	5	32	?	P	d	-666.56	NA	4	24	9	56	c	n	495.38	1	1000	100	0	0
177	5	33	?	P	d	-782.63	NA	2	24	7	56	c	n	738.03	1	1000	1000	0	0
177	5	34	?	P	d	-710.77	NA	4	56	9	24	i	j	1148.06	1	1000	100	0	0
177	5	35	?	N	f	381.0	NA	3	24	9	56	c	n	364.03	1	100	1000	0	0
177	5	36	?	N	f	-645.28	NA	9	24	2	56	i	j	606.54	1	1000	100	0	0
177	5	37	?	N	f	159.62	NA	7	56	3	24	c	j	798.8	1	100	100	0	0
177	5	38	?	N	f	-666.51	NA	4	56	9	24	i	n	1000.37	1	1000	1000	0	0
177	5	39	?	P	d	292.96	NA	2	24	7	56	c	n	2688.67	1	1000	100	0	0
177	5	40	?	P	d	-701.77	NA	7	24	4	56	i	j	651.16	0	1000	100	0	0
177	5	41	?	P	d	333.6	NA	9	56	3	24	c	j	620.07	1	100	1000	0	1
177	5	42	?	P	d	145.66	NA	4	24	9	56	c	n	576.07	1	100	1000	0	0
177	5	43	?	N	f	-594.44	NA	3	56	7	24	i	j	521.46	0	1000	1000	0	0
177	5	44	?	N	f	426.88	NA	8	56	4	24	c	j	629.15	1	1000	1000	0	1
177	5	45	?	N	f	402.16	NA	3	56	8	24	i	n	734.74	1	100	100	0	0
177	5	46	?	N	f	-444.46	NA	2	24	8	56	c	n	1279.35	1	1000	1000	0	0
177	5	47	?	P	d	872.68	NA	4	24	7	56	c	n	1401.54	1	1000	100	0	0
177	5	48	?	P	d	-180.68	NA	3	56	8	24	i	j	1397.23	1	1000	100	0	0
177	5	49	?	P	d	492.95	NA	4	56	9	24	i	j	1618.39	1	100	1000	0	0
177	5	50	?	N	f	326.88	NA	9	24	3	56	i	j	3295.56	1	1000	1000	0	0
177	5	51	?	N	f	723.87	NA	8	56	4	24	c	j	2258.74	1	1000	100	0	0
177	5	52	?	P	d	5132.53	NA	2	56	8	24	i	j	2194.84	1	100	100	0	0
177	5	53	?	P	d	-435.56	NA	4	56	8	24	i	j	680.69	1	1000	100	0	0
177	5	54	?	N	f	1191.23	NA	7	56	2	24	c	j	908.88	1	100	100	0	0
177	5	55	?	N	f	429.75	NA	8	56	4	24	c	j	633.96	1	1000	100	0	0
177	5	56	?	P	d	496.23	NA	9	24	2	56	i	n	384.77	1	100	1000	0	0
177	5	57	?	P	d	536.92	NA	7	56	3	24	c	j	568.37	1	100	100	0	0
177	5	58	?	P	d	474.97	NA	4	56	7	24	i	j	896.81	1	100	1000	0	0
177	5	59	?	P	d	1313.69	NA	2	56	9	24	i	j	688.64	1	100	1000	0	0
177	5	60	?	N	f	359.98	NA	4	24	9	56	c	n	990.03	1	100	1000	0	0
177	5	61	?	N	f	-203.38	NA	7	56	3	24	c	j	396.47	1	1000	100	0	0
177	5	62	?	N	f	-556.61	NA	7	56	4	24	c	j	491.52	1	1000	1000	0	0
177	5	63	?	N	f	-617.4	NA	3	24	7	56	c	n	599.85	1	1000	1000	0	0
177	5	64	?	N	f	1597.95	NA	9	24	2	56	i	j	530.66	1	1000	1000	0	0
177	5	65	?	P	d	268.84	NA	7	24	4	56	i	n	869.71	1	100	100	0	0
177	6	1	?	P	d	16750.31	NA	4	24	9	56	c	n	2863.25	1	1000	100	-1	0
177	6	2	?	P	d	320.85	NA	2	56	9	24	i	j	938.65	1	100	1000	0	0
177	6	3	?	P	d	316.47	NA	8	56	4	24	c	j	646.92	1	100	100	0	0
177	6	4	?	P	d	605.78	NA	7	56	2	24	c	j	624.7	1	100	1000	0	0
177	6	5	?	P	d	644.44	NA	3	24	9	56	c	n	743.33	1	100	100	0	0
177	6	6	?	P	d	-277.53	NA	9	56	4	24	c	j	1501.36	1	1000	1000	0	0
177	6	7	?	N	f	367.21	NA	7	24	3	56	i	j	1363.18	1	100	1000	0	0
177	6	8	?	N	f	-635.9	NA	7	56	4	24	c	j	863.04	1	1000	100	0	0
177	6	9	?	N	f	-162.69	NA	3	24	9	56	c	n	817.55	1	1000	1000	0	0
177	6	10	?	N	f	339.53	NA	8	24	2	56	i	j	840.71	1	100	100	0	0
177	6	11	?	N	f	305.7	NA	8	56	4	24	c	j	681.96	1	100	1000	0	0
177	6	12	?	N	f	380.67	NA	9	56	2	24	c	j	1049.81	1	1000	1000	0	0
177	6	13	?	N	f	-531.17	NA	9	56	4	24	c	j	494.46	1	1000	1000	0	0
177	6	14	?	N	f	974.41	NA	3	56	8	24	i	n	1347.58	1	100	100	0	0
177	6	15	?	P	d	-139.77	NA	4	24	8	56	c	n	1370.07	1	1000	1000	0	0
177	6	16	?	P	d	-342.34	NA	9	24	3	56	i	j	673.23	0	1000	100	0	0
177	6	17	?	P	d	-686.34	NA	9	24	2	56	i	n	824.05	1	1000	100	0	1
177	6	18	?	P	d	81.96	NA	3	56	9	24	i	j	454.33	1	100	1000	0	0
177	6	19	?	P	d	-519.68	NA	4	56	8	24	i	j	584.19	1	1000	1000	0	0
177	6	20	?	N	f	-39.68	NA	7	56	2	24	c	j	1628.49	1	1000	100	0	0
177	6	21	?	N	f	-502.34	NA	7	56	4	24	c	j	726.69	1	1000	100	0	0
177	6	22	?	N	f	263.57	NA	9	24	3	56	i	j	5370.17	1	1000	100	0	0
177	6	23	?	N	f	-712.0	NA	4	56	7	24	i	n	2957.7	1	1000	1000	0	0
177	6	24	?	P	d	529.66	NA	7	56	3	24	c	j	700.89	1	100	100	0	0
177	6	25	?	P	d	-158.32	NA	2	56	8	24	i	j	631.81	1	1000	100	0	0
177	6	26	?	P	d	-610.86	NA	3	24	9	56	c	n	1080.09	1	1000	100	0	0
177	6	27	?	P	d	7.73	NA	4	56	7	24	i	n	1088.22	0	1000	1000	0	0
177	6	28	?	P	d	269.1	NA	3	24	8	56	c	n	1264.0	1	1000	100	0	1
177	6	29	?	N	f	300.58	NA	9	56	4	24	c	j	496.33	1	1000	1000	0	0
177	6	30	?	N	f	312.59	NA	9	56	2	24	c	j	486.75	1	100	100	0	0
177	6	31	?	N	f	167.41	NA	9	24	4	56	i	j	1031.88	1	100	100	0	0
177	6	32	?	N	f	156.3	NA	2	24	9	56	c	n	884.7	1	100	1000	0	0
177	6	33	?	N	f	553.1	NA	4	24	7	56	c	n	701.7	1	100	100	0	0
177	6	34	?	P	d	-207.43	NA	3	24	7	56	c	n	943.15	1	1000	100	0	0
177	6	35	?	P	d	-717.78	NA	7	24	2	56	i	j	1028.04	0	1000	1000	0	0
177	6	36	?	P	d	445.65	NA	4	24	7	56	c	n	608.73	1	100	1000	0	1
177	6	37	?	P	d	217.71	NA	2	56	7	24	i	j	633.13	1	100	100	0	0
177	6	38	?	P	d	-677.22	NA	9	24	3	56	i	n	630.56	1	1000	1000	0	0
177	6	39	?	P	d	-679.51	NA	9	24	4	56	i	n	819.19	1	1000	100	0	0
177	6	40	?	P	d	111.2	NA	7	24	2	56	i	n	766.78	1	100	100	0	0
177	6	41	?	N	f	438.86	NA	4	56	9	24	i	n	793.54	1	100	1000	0	0
177	6	42	?	N	f	241.77	NA	3	56	7	24	i	n	1045.19	1	100	100	0	0
177	6	43	?	N	f	108.37	NA	2	24	9	56	c	n	538.37	1	100	100	0	0
177	6	44	?	N	f	-473.98	NA	9	56	3	24	c	j	766.67	1	1000	100	0	0
177	6	45	?	N	f	225.28	NA	2	24	9	56	c	n	606.22	1	100	1000	0	0
177	6	46	?	N	f	271.28	NA	9	24	4	56	i	j	849.21	1	100	1000	0	0
177	6	47	?	N	f	302.81	NA	8	24	2	56	i	j	1251.82	1	1000	1000	0	0
177	6	48	?	P	d	-590.29	NA	4	56	7	24	i	j	627.36	1	1000	100	0	0
177	6	49	?	P	d	500.36	NA	3	24	9	56	c	n	669.91	1	1000	1000	0	0
177	6	50	?	P	d	-82.16	NA	2	56	7	24	i	j	864.77	1	1000	1000	0	0
177	6	51	?	P	d	201.41	NA	7	24	4	56	i	n	643.13	1	100	1000	0	0
177	6	52	?	P	d	803.87	NA	9	56	2	24	c	j	499.27	1	100	1000	0	0
177	6	53	?	P	d	326.64	NA	8	24	3	56	i	n	944.84	1	100	100	0	0
177	6	54	?	P	d	445.55	NA	7	24	2	56	i	n	968.79	1	100	1000	0	0
177	6	55	?	N	f	232.89	NA	3	24	9	56	c	n	4496.05	1	1000	100	0	0
177	6	56	?	N	f	206.19	NA	4	24	9	56	c	n	445.97	1	100	100	0	0
177	6	57	?	N	f	77.01	NA	3	24	7	56	c	n	753.15	1	100	1000	0	0
177	6	58	?	N	f	190.16	NA	9	56	4	24	c	j	728.55	1	100	100	0	0
177	6	59	?	N	f	-625.92	NA	2	56	9	24	i	n	12282.07	1	1000	100	0	0
177	6	60	?	N	f	-634.95	NA	7	24	4	56	i	j	819.97	1	1000	100	0	0
177	6	61	?	P	d	-274.0	NA	7	24	3	56	i	n	976.79	1	1000	1000	0	0
177	6	62	?	P	d	-762.16	NA	2	24	8	56	c	n	736.48	1	1000	1000	0	0
177	6	63	?	P	d	54.53	NA	9	24	4	56	i	n	590.71	1	100	1000	0	0
177	6	64	?	P	d	530.85	NA	8	56	3	24	c	j	746.24	1	100	1000	0	0
177	6	65	?	N	f	784.77	NA	7	24	4	56	i	j	4125.33	1	100	100	0	0
