subj	block	trial	task_cue	task	choice_resp	choiceRT	choice_acc	topnum	topsize	botnum	botsize	cong	task_resp	taskRT	task_acc	RSI	CSI	altRep	E1
178	1	1	P	P	f	853.19	1	3	56	8	24	i	j	603.04	1	100	1000	-1	0
178	1	2	P	P	f	1203.86	1	4	56	9	24	i	j	436.36	1	100	100	0	0
178	1	3	P	P	f	786.35	1	2	56	9	24	i	j	536.89	1	1000	1000	0	0
178	1	4	N	N	d	1036.7	0	3	24	7	56	c	n	653.33	1	100	100	1	0
178	1	5	P	P	f	936.61	1	7	56	4	24	c	j	519.72	1	100	1000	1	0
178	1	6	N	N	d	686.68	0	7	56	2	24	c	j	553.11	1	1000	1000	1	0
178	1	7	N	N	d	1687.66	0	7	24	4	56	i	n	937.63	0	100	100	0	0
178	1	8	P	P	f	1303.81	1	2	24	9	56	c	n	968.73	1	100	100	1	1
178	1	9	P	P	f	936.64	1	8	56	3	24	c	j	452.39	1	1000	1000	0	0
178	1	10	N	N	d	653.09	0	4	24	7	56	c	n	402.16	1	1000	1000	1	0
178	1	11	N	N	d	603.08	0	8	24	3	56	i	j	1020.86	1	1000	1000	0	0
178	1	12	N	N	f	736.83	0	4	24	8	56	c	n	2221.3	1	100	100	0	0
178	1	13	N	N	d	986.65	0	2	24	7	56	c	j	1838.26	0	1000	100	0	0
178	1	14	P	P	f	1153.75	1	4	56	8	24	i	n	1053.03	0	1000	1000	1	1
178	1	15	P	P	f	769.6	1	8	56	2	24	c	j	737.04	1	1000	100	0	1
178	1	16	P	P	f	1020.16	1	4	24	8	56	c	n	1002.94	1	100	1000	0	0
178	1	17	P	P	f	719.7	1	3	24	8	56	c	n	553.4	1	100	100	0	0
178	1	18	P	P	f	719.97	1	9	24	2	56	i	n	719.87	1	100	100	0	0
178	1	19	N	N	d	769.86	0	4	56	7	24	i	j	720.13	0	100	1000	1	0
178	1	20	N	N	d	1821.15	0	9	24	2	56	i	j	886.4	1	100	1000	0	1
178	1	21	N	N	d	886.49	0	4	56	8	24	i	n	603.14	1	1000	1000	0	0
178	1	22	N	N	d	836.36	0	3	56	9	24	i	n	586.47	1	100	100	0	0
178	1	23	N	N	d	752.77	0	2	24	7	56	c	n	737.96	1	1000	1000	0	0
178	1	24	N	N	d	487.01	0	8	56	3	24	c	n	485.84	0	1000	1000	0	0
178	1	25	N	N	d	870.06	0	7	56	2	24	c	j	736.37	1	100	1000	0	1
178	1	26	P	P	f	719.19	1	3	56	8	24	i	j	1187.75	1	1000	100	1	0
178	1	27	N	N	d	769.82	0	2	24	8	56	c	n	619.68	1	100	1000	1	0
178	1	28	P	P	f	770.47	1	3	56	7	24	i	n	770.48	0	100	1000	1	0
178	1	29	P	P	f	869.92	1	4	56	9	24	i	j	1287.43	1	1000	100	0	1
178	1	30	N	N	f	619.73	0	8	24	2	56	i	n	1069.61	0	1000	1000	1	0
178	1	31	P	P	f	753.37	1	8	24	3	56	i	n	1103.75	1	1000	1000	1	1
178	1	32	N	N	d	936.75	0	9	56	4	24	c	j	470.73	1	100	1000	1	0
178	1	33	N	N	d	719.5	0	9	56	2	24	c	j	486.18	1	100	100	0	0
178	1	34	N	N	d	552.73	0	8	24	4	56	i	j	753.15	1	1000	100	0	0
178	1	35	N	N	d	619.8	0	3	56	9	24	i	n	569.57	1	1000	100	0	0
178	1	36	P	P	f	1136.66	1	9	56	2	24	c	j	453.71	1	1000	100	1	0
178	1	37	P	P	f	786.6	1	3	24	8	56	c	n	536.25	1	1000	100	0	0
178	1	38	N	N	d	820.09	0	9	56	4	24	c	j	669.69	1	100	100	1	0
178	1	39	P	P	f	1003.33	1	3	24	7	56	c	n	352.09	1	100	1000	1	0
178	1	40	N	N	d	352.85	0	4	56	8	24	i	j	669.85	0	1000	100	1	0
178	1	41	P	P	f	469.43	1	9	56	3	24	c	j	553.0	1	1000	1000	1	1
178	1	42	P	P	d	402.84	1	2	24	9	56	c	n	1353.91	1	1000	1000	0	0
178	1	43	N	N	f	920.2	0	9	24	4	56	i	j	2004.1	1	100	1000	1	0
178	1	44	N	N	d	552.4	0	9	56	2	24	c	j	1137.22	1	1000	100	0	0
178	1	45	P	P	f	1670.95	1	8	24	4	56	i	n	952.91	1	100	100	1	0
178	1	46	N	N	d	669.97	0	3	24	9	56	c	n	836.9	1	1000	100	1	0
178	1	47	P	P	f	986.96	1	2	24	9	56	c	n	703.67	1	1000	100	1	0
178	1	48	P	P	f	769.94	1	8	56	3	24	c	j	686.06	1	100	1000	0	0
178	1	49	P	P	f	736.04	1	4	56	8	24	i	j	519.1	1	100	1000	0	0
178	1	50	N	N	d	920.78	0	7	24	2	56	i	j	1370.52	1	100	100	1	0
178	1	51	P	P	f	1020.11	1	7	56	4	24	c	j	636.84	1	100	100	1	0
178	1	52	P	P	f	452.57	1	7	24	2	56	i	n	1135.17	1	1000	1000	0	0
178	1	53	P	P	f	635.8	1	7	24	3	56	i	n	536.29	1	100	1000	0	0
178	1	54	P	P	f	670.21	1	8	24	4	56	i	n	1670.39	1	1000	100	0	0
178	1	55	N	N	d	535.7	0	9	56	2	24	c	j	803.45	1	1000	100	1	0
178	1	56	P	P	f	953.23	1	3	56	8	24	i	n	804.04	0	100	100	1	0
178	1	57	P	P	f	969.23	1	7	56	2	24	c	j	553.08	1	100	100	0	1
178	1	58	N	N	d	552.36	0	4	56	9	24	i	n	703.87	1	100	100	1	0
178	1	59	P	P	f	936.7	1	9	24	2	56	i	n	553.05	1	1000	100	1	0
178	1	60	N	N	d	736.49	0	7	24	3	56	i	j	603.08	1	1000	100	1	0
178	1	61	N	N	d	1053.3	0	2	24	7	56	c	n	536.14	1	100	1000	0	0
178	1	62	N	N	d	753.06	0	3	56	9	24	i	n	652.82	1	100	1000	0	0
178	1	63	P	P	d	452.6	1	4	24	7	56	c	n	603.13	1	1000	1000	1	0
178	1	64	N	N	d	1020.0	0	2	56	9	24	i	n	1003.91	1	1000	1000	1	0
178	1	65	P	P	f	1002.68	1	9	24	4	56	i	j	669.25	0	100	1000	1	0
178	2	1	P	P	d	1737.55	1	3	24	7	56	c	n	1186.95	1	1000	100	-1	0
178	2	2	P	P	f	752.77	1	8	24	4	56	i	n	787.12	1	100	100	0	0
178	2	3	N	N	d	519.48	0	2	24	7	56	c	n	836.53	1	1000	100	1	0
178	2	4	N	N	f	836.74	0	4	24	7	56	c	n	602.63	1	100	1000	0	0
178	2	5	P	P	f	518.8	1	3	56	8	24	i	j	467.61	1	1000	1000	1	0
178	2	6	N	N	d	853.34	0	9	24	4	56	i	n	385.89	0	100	1000	1	0
178	2	7	N	N	d	587.08	0	3	56	8	24	i	n	569.35	1	1000	1000	0	1
178	2	8	N	N	d	417.53	0	9	24	4	56	i	j	603.7	1	1000	1000	0	0
178	2	9	P	P	f	569.62	1	9	56	3	24	c	j	369.73	1	1000	1000	1	0
178	2	10	N	N	d	686.68	0	7	24	4	56	i	j	603.62	1	1000	1000	1	0
178	2	11	P	P	f	1087.01	1	7	24	3	56	i	j	820.59	0	100	100	1	0
178	2	12	P	P	d	636.47	1	4	56	9	24	i	j	886.69	1	1000	1000	0	1
178	2	13	P	P	f	669.86	1	3	56	9	24	i	j	420.46	1	100	1000	0	0
178	2	14	P	P	f	502.75	1	4	24	7	56	c	n	752.68	1	1000	100	0	0
178	2	15	N	N	d	569.65	0	8	56	2	24	c	j	552.97	1	1000	1000	1	0
178	2	16	N	N	d	1187.64	0	4	24	8	56	c	n	901.82	1	100	100	0	0
178	2	17	N	N	d	419.33	0	9	56	3	24	c	j	452.67	1	1000	100	0	0
178	2	18	P	P	d	419.42	1	4	56	8	24	i	j	1437.07	1	1000	100	1	0
178	2	19	P	P	f	703.16	1	8	56	3	24	c	j	403.78	1	100	1000	0	0
178	2	20	N	N	d	687.17	0	9	56	4	24	c	n	434.2	0	100	1000	1	0
178	2	21	N	N	d	1454.09	0	2	56	7	24	i	n	786.55	1	100	1000	0	1
178	2	22	N	N	d	486.36	0	9	56	4	24	c	j	519.75	1	100	100	0	0
178	2	23	P	P	d	453.08	1	2	24	7	56	c	n	1387.31	1	100	100	1	0
178	2	24	P	P	f	1270.24	1	7	24	4	56	i	j	701.9	0	1000	1000	0	0
178	2	25	P	P	f	1003.49	1	2	24	8	56	c	n	436.18	1	100	1000	0	1
178	2	26	N	N	d	669.73	0	8	24	3	56	i	n	769.58	0	1000	100	1	0
178	2	27	P	P	f	1137.16	1	7	24	2	56	i	n	787.29	1	1000	100	1	1
178	2	28	N	N	d	569.57	0	3	56	7	24	i	n	619.68	1	100	1000	1	0
178	2	29	N	N	d	719.94	0	8	24	4	56	i	j	837.11	1	100	100	0	0
178	2	30	P	P	d	1087.01	1	7	24	2	56	i	n	819.82	1	1000	1000	1	0
178	2	31	N	N	d	868.05	0	8	56	4	24	c	j	634.27	1	100	100	1	0
178	2	32	P	P	f	786.25	1	7	56	3	24	c	j	586.79	1	100	100	1	0
178	2	33	N	N	d	619.55	0	2	24	7	56	c	n	619.89	1	1000	1000	1	0
178	2	34	N	N	d	1802.57	0	3	56	8	24	i	j	536.76	0	100	100	0	0
178	2	35	P	P	f	753.28	1	8	24	2	56	i	j	917.86	0	100	1000	1	1
178	2	36	P	P	f	1337.21	1	7	56	4	24	c	j	753.6	1	100	100	0	1
178	2	37	P	P	f	602.71	1	2	24	7	56	c	n	853.27	1	1000	1000	0	0
178	2	38	P	P	f	752.49	1	8	56	4	24	c	j	619.99	1	1000	100	0	0
178	2	39	N	N	d	619.72	0	3	24	8	56	c	n	537.19	1	100	100	1	0
178	2	40	P	P	f	1036.77	1	4	56	9	24	i	j	570.11	1	100	100	1	0
178	2	41	P	P	f	703.08	1	3	56	9	24	i	j	502.33	1	100	100	0	0
178	2	42	N	N	d	652.57	0	2	56	8	24	i	n	736.27	1	100	100	1	0
178	2	43	N	N	d	502.94	0	4	56	8	24	i	n	737.32	1	1000	100	0	0
178	2	44	N	N	d	985.95	0	3	24	8	56	c	n	436.39	1	1000	1000	0	0
178	2	45	P	P	f	653.68	1	2	24	9	56	c	n	769.95	1	1000	100	1	0
178	2	46	N	N	d	736.11	0	3	24	7	56	c	n	800.89	1	100	1000	1	0
178	2	47	P	P	f	486.33	1	9	56	2	24	c	j	803.17	1	1000	100	1	0
178	2	48	P	P	f	485.73	1	3	56	9	24	i	j	803.05	1	1000	100	0	0
178	2	49	N	N	d	703.35	0	8	56	2	24	c	j	569.38	1	1000	100	1	0
178	2	50	P	P	d	719.06	1	3	24	7	56	c	n	803.58	1	100	1000	1	0
178	2	51	N	N	f	636.46	0	4	56	9	24	i	j	1454.4	0	1000	1000	1	0
178	2	52	N	N	d	569.1	0	8	24	3	56	i	j	1070.0	1	1000	100	0	1
178	2	53	P	P	f	1487.54	1	2	56	7	24	i	j	669.74	1	100	1000	1	0
178	2	54	P	P	f	601.11	1	7	56	4	24	c	j	452.2	1	1000	1000	0	0
178	2	55	P	P	f	719.79	1	7	24	3	56	i	j	837.03	0	100	1000	0	0
178	2	56	N	N	f	920.03	0	4	56	7	24	i	j	2188.37	0	1000	100	1	1
178	2	57	N	N	d	1120.56	0	9	56	3	24	c	j	652.85	1	100	1000	0	1
178	2	58	N	N	d	770.17	0	7	24	4	56	i	j	735.43	1	100	1000	0	0
178	2	59	N	N	d	1087.28	0	8	56	3	24	c	j	536.45	1	1000	1000	0	0
178	2	60	N	N	d	635.6	0	2	24	7	56	c	n	769.02	1	1000	100	0	0
178	2	61	P	P	f	669.89	1	4	24	7	56	c	n	570.23	1	1000	1000	1	0
178	2	62	N	N	d	819.66	0	7	24	3	56	i	j	769.29	1	100	100	1	0
178	2	63	P	P	f	1053.11	1	7	56	4	24	c	j	553.42	1	100	1000	1	0
178	2	64	P	P	d	536.75	1	7	24	2	56	i	n	1268.57	1	1000	100	0	0
178	2	65	P	P	f	653.39	1	4	24	7	56	c	j	1086.83	0	100	100	0	0
178	3	1	N	N	d	1287.18	0	2	56	8	24	i	n	1704.3	1	100	100	-1	0
178	3	2	P	P	f	901.41	1	4	24	8	56	c	n	1086.85	1	100	100	1	0
178	3	3	P	P	f	820.58	1	2	24	7	56	c	n	537.15	1	100	100	0	0
178	3	4	N	N	d	552.99	0	4	56	8	24	i	n	670.03	1	1000	100	1	0
178	3	5	P	P	f	786.63	1	2	56	8	24	i	j	419.79	1	1000	1000	1	0
178	3	6	N	N	d	653.03	0	4	24	9	56	c	n	503.12	1	1000	100	1	0
178	3	7	N	N	d	803.39	0	7	56	3	24	c	j	687.71	1	100	100	0	0
178	3	8	N	N	d	653.22	0	4	24	7	56	c	n	870.46	1	100	100	0	0
178	3	9	P	P	f	703.41	1	2	24	7	56	c	n	704.09	1	1000	100	1	0
178	3	10	P	P	f	953.31	1	4	56	7	24	i	j	586.96	1	100	100	0	0
178	3	11	N	N	f	1120.5	0	2	24	8	56	c	n	1787.86	1	100	100	1	0
178	3	12	P	P	f	1085.03	1	8	56	4	24	c	j	485.99	1	1000	1000	1	0
178	3	13	P	P	f	586.38	1	8	56	2	24	c	j	469.06	1	1000	100	0	0
178	3	14	N	N	d	685.71	0	8	56	4	24	c	j	617.34	1	100	100	1	0
178	3	15	N	N	d	502.9	0	9	56	2	24	c	j	753.57	1	100	1000	0	0
178	3	16	N	N	d	486.38	0	7	56	4	24	c	j	636.77	1	1000	100	0	0
178	3	17	P	P	d	786.69	1	8	24	3	56	i	n	1921.03	1	100	1000	1	0
178	3	18	N	N	f	986.84	0	2	56	8	24	i	j	619.64	0	100	1000	1	0
178	3	19	N	N	d	1036.8	0	4	56	9	24	i	n	1019.5	1	100	1000	0	1
178	3	20	P	P	f	786.36	1	7	56	3	24	c	j	1053.86	1	100	100	1	0
178	3	21	P	P	f	619.5	1	7	24	4	56	i	n	1036.89	1	1000	100	0	0
178	3	22	N	N	d	2154.65	0	3	24	8	56	c	n	653.46	1	100	1000	1	0
178	3	23	N	N	d	719.75	0	4	56	8	24	i	n	1436.82	1	1000	1000	0	0
178	3	24	P	P	f	1270.66	1	2	56	7	24	i	j	1286.51	1	1000	100	1	0
178	3	25	P	P	f	603.16	1	4	24	8	56	c	n	469.16	1	1000	1000	0	0
178	3	26	P	P	f	754.02	1	9	24	3	56	i	n	686.47	1	100	1000	0	0
178	3	27	P	P	f	369.84	1	2	56	9	24	i	j	770.04	1	1000	1000	0	0
178	3	28	N	N	d	636.43	0	9	24	4	56	i	n	586.59	0	100	1000	1	0
178	3	29	P	P	f	1437.44	1	7	56	3	24	c	j	1170.16	1	100	1000	1	1
178	3	30	P	P	f	636.58	1	7	56	4	24	c	j	386.3	1	100	1000	0	0
178	3	31	N	N	d	1453.99	0	8	24	3	56	i	j	569.77	1	100	100	1	0
178	3	32	P	P	f	853.39	1	2	56	8	24	i	j	1070.44	1	100	1000	1	0
178	3	33	P	P	f	468.93	1	9	56	3	24	c	j	453.07	1	1000	1000	0	0
178	3	34	P	P	f	1120.07	1	7	24	4	56	i	n	1037.03	1	100	100	0	0
178	3	35	N	N	d	1504.35	0	9	56	3	24	c	j	518.99	1	1000	1000	1	0
178	3	36	P	P	f	1971.59	1	4	24	8	56	c	n	436.55	1	100	1000	1	0
178	3	37	N	N	d	1904.03	0	8	24	3	56	i	j	868.44	1	1000	1000	1	0
178	3	38	N	N	d	753.14	0	2	24	7	56	c	n	1002.75	1	100	1000	0	0
178	3	39	N	N	d	1670.89	0	4	24	9	56	c	n	620.57	1	1000	1000	0	0
178	3	40	N	N	d	602.96	0	8	24	2	56	i	j	669.82	1	100	1000	0	0
178	3	41	N	N	d	419.44	0	7	56	4	24	c	j	670.4	1	1000	1000	0	0
178	3	42	P	P	f	1404.01	1	3	56	8	24	i	j	2622.16	1	100	100	1	0
178	3	43	P	P	f	1403.5	1	4	56	8	24	i	j	3206.28	1	1000	100	0	0
178	3	44	P	P	f	619.67	1	3	24	8	56	c	n	720.19	1	100	1000	0	0
178	3	45	P	P	f	469.6	1	9	24	4	56	i	n	1103.68	1	1000	1000	0	0
178	3	46	P	P	f	652.78	1	3	24	8	56	c	n	820.11	1	1000	100	0	0
178	3	47	N	N	d	1153.3	0	9	24	4	56	i	j	1003.14	1	1000	100	1	0
178	3	48	P	P	f	720.09	1	9	56	2	24	c	j	1004.01	1	1000	100	1	0
178	3	49	P	P	f	603.1	1	3	56	9	24	i	j	1103.52	1	100	1000	0	0
178	3	50	P	P	f	602.86	1	9	56	2	24	c	j	502.71	1	100	100	0	0
178	3	51	N	N	d	436.26	0	4	56	8	24	i	n	636.23	1	1000	1000	1	0
178	3	52	P	P	f	737.24	1	9	24	2	56	i	n	1137.02	1	100	100	1	0
178	3	53	N	N	d	453.26	0	7	56	4	24	c	j	936.45	1	1000	100	1	0
178	3	54	N	N	d	502.48	0	9	24	2	56	i	j	903.92	1	100	100	0	0
178	3	55	P	P	d	419.87	1	3	24	7	56	c	n	936.85	1	1000	1000	1	0
178	3	56	N	N	f	569.69	0	4	56	7	24	i	n	1771.01	1	100	100	1	0
178	3	57	N	N	d	870.17	0	2	56	9	24	i	n	1353.86	1	1000	100	0	0
178	3	58	N	N	d	636.65	0	7	24	3	56	i	j	536.91	1	1000	1000	0	0
178	3	59	N	N	d	1136.87	0	2	56	8	24	i	n	769.73	1	100	100	0	0
178	3	60	N	N	d	553.34	0	7	24	3	56	i	j	736.95	1	1000	100	0	0
178	3	61	N	N	d	352.72	0	2	24	7	56	c	n	602.86	1	1000	100	0	0
178	3	62	P	P	d	419.5	1	9	24	4	56	i	j	703.85	0	1000	1000	1	0
178	3	63	N	N	d	1020.02	0	7	56	2	24	c	j	803.36	1	100	1000	1	1
178	3	64	P	P	d	536.47	1	8	24	3	56	i	n	1485.1	1	1000	100	1	0
178	3	65	N	N	d	469.58	0	4	24	7	56	c	n	770.02	1	1000	1000	1	0
178	4	1	N	N	f	686.88	0	9	24	3	56	i	j	1820.19	1	100	1000	-1	0
178	4	2	P	P	d	752.57	1	9	56	4	24	c	j	653.28	1	100	1000	1	0
178	4	3	N	N	d	452.74	0	2	24	7	56	c	n	834.58	1	1000	1000	1	0
178	4	4	N	N	d	836.67	0	4	56	8	24	i	n	1770.71	1	100	100	0	0
178	4	5	P	P	f	754.09	1	2	24	9	56	c	n	803.43	1	100	1000	1	0
178	4	6	P	P	f	970.23	1	9	24	4	56	i	n	619.63	1	100	1000	0	0
178	4	7	P	P	f	536.2	1	9	24	3	56	i	n	1020.84	1	100	100	0	0
178	4	8	P	P	f	452.08	1	2	24	8	56	c	n	286.52	1	1000	100	0	0
178	4	9	N	N	d	703.58	0	9	56	3	24	c	j	452.71	1	100	100	1	0
178	4	10	N	N	d	336.28	0	4	56	8	24	i	n	587.03	1	1000	1000	0	0
178	4	11	P	P	f	836.2	1	7	56	2	24	c	j	669.01	1	100	100	1	0
178	4	12	N	N	d	753.18	0	9	56	4	24	c	j	569.67	1	1000	1000	1	0
178	4	13	N	N	d	619.8	0	3	56	9	24	i	n	569.86	1	100	1000	0	0
178	4	14	N	N	d	720.29	0	7	56	2	24	c	j	769.8	1	100	1000	0	0
178	4	15	N	N	d	519.52	0	3	24	9	56	c	n	1137.11	1	1000	100	0	0
178	4	16	N	N	d	619.84	0	7	24	4	56	i	j	1270.25	1	1000	100	0	0
178	4	17	P	P	f	1018.36	1	9	24	2	56	i	j	969.68	0	1000	1000	1	0
178	4	18	P	P	f	602.97	1	3	24	8	56	c	n	653.6	1	1000	1000	0	1
178	4	19	N	N	d	1020.15	0	2	24	7	56	c	n	652.82	1	100	1000	1	0
178	4	20	N	N	d	886.68	0	9	24	4	56	i	n	402.71	0	100	1000	0	0
178	4	21	P	P	d	1086.66	1	2	56	7	24	i	n	920.9	0	100	1000	1	1
178	4	22	N	N	d	870.08	0	3	56	9	24	i	j	1203.98	0	1000	100	1	1
178	4	23	N	N	d	886.15	0	9	56	2	24	c	j	502.87	1	1000	1000	0	1
178	4	24	N	N	d	485.73	0	3	24	9	56	c	n	569.36	1	100	100	0	0
178	4	25	N	N	d	770.09	0	4	56	7	24	i	j	586.29	0	1000	100	0	0
178	4	26	N	N	d	1837.69	0	2	24	7	56	c	n	853.52	1	100	1000	0	1
178	4	27	N	N	d	452.82	0	7	24	3	56	i	j	569.55	1	1000	1000	0	0
178	4	28	P	P	d	936.5	1	4	56	8	24	i	j	2672.03	1	100	100	1	0
178	4	29	N	N	d	636.62	0	2	24	7	56	c	n	1054.14	1	1000	100	1	0
178	4	30	P	P	d	803.22	1	9	24	4	56	i	n	1453.17	1	100	100	1	0
178	4	31	P	P	f	536.21	1	8	56	3	24	c	j	519.62	1	1000	1000	0	0
178	4	32	P	P	f	853.13	1	8	56	4	24	c	j	419.52	1	100	1000	0	0
178	4	33	P	P	f	636.46	1	2	24	7	56	c	n	870.32	1	100	1000	0	0
178	4	34	N	N	d	653.06	0	3	56	7	24	i	n	1587.93	1	1000	1000	1	0
178	4	35	P	P	f	820.22	1	4	24	7	56	c	n	1554.37	1	1000	1000	1	0
178	4	36	P	P	f	1070.07	1	2	24	8	56	c	n	452.76	1	100	100	0	0
178	4	37	N	N	f	369.55	0	7	24	4	56	i	j	970.98	1	1000	1000	1	0
178	4	38	P	P	d	552.91	1	7	56	3	24	c	j	520.0	1	1000	1000	1	0
178	4	39	P	P	f	418.68	1	7	24	2	56	i	n	569.33	1	1000	1000	0	0
178	4	40	N	N	d	753.13	0	8	56	4	24	c	j	1187.26	1	1000	100	1	0
178	4	41	P	P	f	1219.67	1	2	24	7	56	c	n	887.23	1	100	100	1	0
178	4	42	P	P	f	619.75	1	9	24	4	56	i	n	703.68	1	1000	100	0	0
178	4	43	N	N	d	703.24	0	2	56	7	24	i	n	903.03	1	100	1000	1	0
178	4	44	N	N	d	603.06	0	8	24	4	56	i	j	670.0	1	100	100	0	0
178	4	45	P	P	d	469.65	1	8	24	2	56	i	n	1236.85	1	100	1000	1	0
178	4	46	P	P	f	703.14	1	4	56	8	24	i	j	686.17	1	1000	1000	0	0
178	4	47	N	N	d	686.84	0	7	24	3	56	i	j	1037.09	1	100	100	1	0
178	4	48	P	P	f	452.76	1	2	56	7	24	i	n	686.81	0	1000	1000	1	0
178	4	49	N	N	d	786.38	0	4	24	9	56	c	n	685.94	1	100	100	1	1
178	4	50	N	N	d	520.0	0	3	24	8	56	c	n	485.48	1	1000	1000	0	0
178	4	51	P	P	d	485.71	1	2	56	9	24	i	j	1120.39	1	1000	100	1	0
178	4	52	P	P	f	717.82	1	9	56	4	24	c	j	919.98	1	100	100	0	0
178	4	53	N	N	d	936.41	0	2	56	7	24	i	j	820.32	0	100	100	1	0
178	4	54	N	N	d	1136.83	0	9	56	4	24	c	j	1237.01	1	100	100	0	1
178	4	55	P	P	f	936.29	1	3	24	7	56	c	n	919.43	1	1000	100	1	0
178	4	56	P	P	f	736.49	1	7	56	2	24	c	j	636.27	1	1000	100	0	0
178	4	57	N	N	d	853.54	0	9	56	4	24	c	j	803.73	1	100	1000	1	0
178	4	58	P	P	f	1287.11	1	8	24	3	56	i	n	1153.88	1	1000	100	1	0
178	4	59	P	P	f	617.88	1	2	56	9	24	i	j	1304.19	1	100	1000	0	0
178	4	60	P	P	f	703.19	1	3	56	7	24	i	j	736.5	1	1000	100	0	0
178	4	61	P	P	f	635.81	1	4	56	8	24	i	j	719.55	1	100	100	0	0
178	4	62	N	N	d	535.78	0	9	24	2	56	i	j	837.04	1	1000	100	1	0
178	4	63	N	N	d	519.54	0	8	56	4	24	c	j	970.4	1	1000	100	0	0
178	4	64	P	P	d	353.0	1	9	56	2	24	c	j	1871.07	1	1000	100	1	0
178	4	65	N	N	f	936.78	0	9	24	4	56	i	n	820.04	0	100	1000	1	0
178	5	1	N	N	d	818.1	0	2	24	7	56	c	n	520.19	1	100	1000	-1	0
178	5	2	P	P	f	753.27	1	3	56	8	24	i	j	1518.64	1	100	100	1	0
178	5	3	P	P	f	569.79	1	7	56	2	24	c	j	803.23	1	1000	100	0	0
178	5	4	P	P	f	419.39	1	3	56	9	24	i	j	600.81	1	1000	100	0	0
178	5	5	P	P	f	1019.97	1	8	24	2	56	i	n	686.94	1	100	100	0	0
178	5	6	P	P	f	1721.17	1	4	24	9	56	c	n	586.98	1	100	1000	0	0
178	5	7	N	N	d	787.15	0	9	56	3	24	c	j	503.64	1	100	1000	1	0
178	5	8	N	N	d	803.5	0	8	24	4	56	i	j	669.67	1	100	100	0	0
178	5	9	N	N	d	1186.92	0	8	24	3	56	i	j	586.7	1	1000	100	0	0
178	5	10	P	P	f	684.43	1	7	56	4	24	c	j	869.87	1	100	1000	1	0
178	5	11	N	N	f	886.65	0	3	56	7	24	i	j	1120.63	0	100	100	1	0
178	5	12	N	N	d	820.03	0	7	56	2	24	c	j	569.09	1	1000	1000	0	1
178	5	13	P	P	f	670.42	1	9	24	3	56	i	j	603.75	0	100	1000	1	0
178	5	14	P	P	d	602.57	1	9	56	2	24	c	j	553.03	1	1000	1000	0	1
178	5	15	P	P	f	553.04	1	9	56	4	24	c	j	602.88	1	100	1000	0	0
178	5	16	N	N	f	552.54	0	3	24	9	56	c	n	1137.55	1	1000	100	1	0
178	5	17	P	P	f	1618.95	1	7	24	2	56	i	j	1204.38	0	100	100	1	0
178	5	18	N	N	d	586.39	0	8	56	3	24	c	j	820.35	1	1000	100	1	1
178	5	19	P	P	f	1086.94	1	4	24	7	56	c	j	551.94	0	100	1000	1	0
178	5	20	P	P	f	669.67	1	7	24	2	56	i	n	1453.51	1	1000	1000	0	1
178	5	21	N	N	d	820.73	0	7	24	3	56	i	n	786.54	0	100	1000	1	0
178	5	22	P	P	f	886.96	1	2	24	7	56	c	n	1404.33	1	1000	100	1	1
178	5	23	N	N	d	803.44	0	4	56	9	24	i	n	1187.14	1	1000	1000	1	0
178	5	24	P	P	d	786.86	1	2	56	7	24	i	j	2205.43	1	100	1000	1	0
178	5	25	P	P	f	2037.93	1	3	56	9	24	i	j	1353.53	1	1000	1000	0	0
178	5	26	P	P	f	1720.21	1	4	56	8	24	i	j	686.82	1	100	100	0	0
178	5	27	P	P	f	603.09	1	3	56	9	24	i	j	503.72	1	100	1000	0	0
178	5	28	P	P	f	619.3	1	4	24	9	56	c	n	769.7	1	100	100	0	0
178	5	29	N	N	d	869.68	0	7	24	2	56	i	n	653.03	0	100	100	1	0
178	5	30	P	P	f	619.99	1	8	24	3	56	i	n	670.16	1	1000	1000	1	1
178	5	31	N	N	f	820.05	0	4	24	8	56	c	n	2153.18	1	100	100	1	0
178	5	32	N	N	d	886.37	0	9	56	2	24	c	j	853.32	1	100	100	0	0
178	5	33	P	P	d	653.35	1	7	56	3	24	c	j	2938.8	1	1000	100	1	0
178	5	34	N	N	d	552.43	0	7	24	4	56	i	j	1186.71	1	1000	100	1	0
178	5	35	N	N	d	669.97	0	7	56	3	24	c	j	519.36	1	100	1000	0	0
178	5	36	N	N	d	719.95	0	4	24	8	56	c	n	703.24	1	1000	100	0	0
178	5	37	N	N	d	1019.99	0	7	24	3	56	i	j	734.51	1	1000	1000	0	0
178	5	38	N	N	d	634.7	0	2	56	8	24	i	n	736.59	1	100	1000	0	0
178	5	39	N	N	d	519.31	0	9	56	3	24	c	j	1086.74	1	1000	100	0	0
178	5	40	P	P	d	570.02	1	2	24	8	56	c	n	1020.84	1	1000	1000	1	0
178	5	41	N	N	f	1103.23	0	7	56	3	24	c	j	2019.63	1	100	100	1	0
178	5	42	P	P	f	853.41	1	2	56	7	24	i	n	419.49	0	1000	1000	1	0
178	5	43	P	P	f	550.9	1	8	24	3	56	i	j	469.48	0	1000	100	0	1
178	5	44	N	N	f	786.45	0	2	24	8	56	c	n	520.28	1	100	1000	1	1
178	5	45	N	N	d	903.11	0	4	24	7	56	c	n	502.99	1	100	1000	0	0
178	5	46	P	P	d	1036.86	1	7	56	3	24	c	j	1187.34	1	100	100	1	0
178	5	47	P	P	f	619.48	1	9	56	4	24	c	j	502.83	1	100	100	0	0
178	5	48	P	P	f	736.52	1	3	24	9	56	c	n	586.26	1	1000	100	0	0
178	5	49	N	N	d	636.64	0	9	56	4	24	c	j	384.68	1	1000	1000	1	0
178	5	50	N	N	d	636.43	0	7	24	3	56	i	j	819.76	1	100	1000	0	0
178	5	51	P	P	d	636.15	1	7	24	4	56	i	n	2288.18	1	1000	100	1	0
178	5	52	P	P	f	636.25	1	2	24	7	56	c	n	969.9	1	1000	1000	0	0
178	5	53	N	N	d	1103.6	0	4	24	9	56	c	n	636.72	1	1000	1000	1	0
178	5	54	P	P	f	2304.75	1	3	56	9	24	i	j	1036.55	1	1000	100	1	0
178	5	55	N	N	d	719.72	0	8	24	2	56	i	n	603.4	0	1000	1000	1	0
178	5	56	P	P	f	1336.61	1	9	56	4	24	c	j	519.66	1	1000	1000	1	1
178	5	57	P	P	f	753.35	1	7	24	3	56	i	n	569.25	1	100	1000	0	0
178	5	58	N	N	d	1353.93	0	2	56	8	24	i	j	567.48	0	100	1000	1	0
178	5	59	N	N	d	619.61	0	3	24	9	56	c	n	569.76	1	100	100	0	1
178	5	60	N	N	d	619.46	0	2	56	8	24	i	n	670.27	1	100	100	0	0
178	5	61	P	P	d	468.68	1	4	24	7	56	c	n	953.28	1	100	100	1	0
178	5	62	N	N	d	719.39	0	2	56	9	24	i	n	1036.41	1	1000	100	1	0
178	5	63	N	N	f	352.57	0	4	24	8	56	c	n	886.4	1	1000	1000	0	0
178	5	64	N	N	d	735.9	0	2	56	7	24	i	j	969.93	0	1000	100	0	0
178	5	65	N	N	d	386.06	0	3	56	8	24	i	n	703.02	1	1000	1000	0	1
178	6	1	N	N	d	836.52	0	9	24	3	56	i	j	620.36	1	100	1000	-1	0
178	6	2	N	N	d	636.39	0	9	56	2	24	c	j	519.75	1	1000	1000	0	0
178	6	3	P	P	f	670.44	1	3	24	8	56	c	n	551.14	1	1000	100	1	0
178	6	4	P	P	f	970.91	1	8	56	4	24	c	j	536.36	1	100	100	0	0
178	6	5	N	N	f	536.91	0	2	56	8	24	i	n	836.87	1	100	1000	1	0
178	6	6	N	N	d	502.64	0	4	24	8	56	c	n	552.74	1	100	100	0	0
178	6	7	P	P	f	636.23	1	2	24	7	56	c	n	486.17	1	100	100	1	0
178	6	8	N	N	d	953.91	0	7	24	4	56	i	n	719.8	0	100	100	1	0
178	6	9	P	P	d	770.99	1	2	56	7	24	i	j	903.46	1	100	1000	1	1
178	6	10	P	P	f	2104.83	1	7	56	3	24	c	j	534.63	1	1000	1000	0	0
178	6	11	N	N	d	586.2	0	9	24	4	56	i	j	1487.19	1	1000	1000	1	0
178	6	12	N	N	d	603.44	0	9	24	3	56	i	j	636.18	1	100	100	0	0
178	6	13	P	P	f	2204.5	1	7	56	4	24	c	j	1336.98	1	1000	1000	1	0
178	6	14	N	N	d	635.75	0	3	24	7	56	c	n	1203.32	1	1000	1000	1	0
178	6	15	N	N	d	469.58	0	9	56	2	24	c	j	569.92	1	1000	100	0	0
178	6	16	N	N	d	519.63	0	7	56	3	24	c	j	502.27	1	100	1000	0	0
178	6	17	N	N	d	453.7	0	4	56	8	24	i	n	736.4	1	1000	100	0	0
178	6	18	P	P	f	719.49	1	8	24	3	56	i	n	1687.49	1	100	1000	1	0
178	6	19	P	P	f	786.68	1	7	56	4	24	c	j	720.08	1	100	1000	0	0
178	6	20	P	P	f	1236.98	1	9	24	2	56	i	n	853.33	1	1000	1000	0	0
178	6	21	P	P	f	602.23	1	4	56	9	24	i	j	603.12	1	1000	1000	0	0
178	6	22	N	N	d	803.75	0	3	56	9	24	i	n	1020.66	1	1000	1000	1	0
178	6	23	P	P	d	851.22	1	9	24	2	56	i	n	1186.99	1	1000	100	1	0
178	6	24	P	P	f	770.12	1	4	56	8	24	i	j	887.0	1	1000	100	0	0
178	6	25	N	N	d	1003.0	0	8	56	3	24	c	j	1420.94	1	1000	100	1	0
178	6	26	N	N	d	1087.0	0	7	56	4	24	c	j	636.78	1	100	100	0	0
178	6	27	P	P	f	2588.54	1	2	56	8	24	i	j	2004.91	1	100	100	1	0
178	6	28	P	P	f	986.65	1	9	24	4	56	i	n	585.74	1	100	1000	0	0
178	6	29	P	P	f	853.46	1	9	24	2	56	i	n	870.03	1	1000	100	0	0
178	6	30	N	N	f	418.97	0	7	56	4	24	c	j	786.52	1	1000	1000	1	0
178	6	31	P	P	f	1237.26	1	2	24	9	56	c	n	2055.05	1	100	1000	1	0
178	6	32	N	N	d	803.22	0	9	24	4	56	i	j	953.36	1	1000	100	1	0
178	6	33	P	P	f	920.27	1	2	24	9	56	c	n	602.38	1	1000	1000	1	0
178	6	34	N	N	f	620.19	0	4	56	9	24	i	n	1104.15	1	100	100	1	0
178	6	35	N	N	d	503.04	0	8	24	3	56	i	j	603.11	1	1000	100	0	0
178	6	36	N	N	d	620.81	0	7	24	2	56	i	j	570.1	1	100	1000	0	0
178	6	37	N	N	d	637.07	0	4	56	9	24	i	n	703.49	1	100	100	0	0
178	6	38	P	P	f	803.49	1	3	56	9	24	i	j	386.53	1	1000	1000	1	0
178	6	39	N	N	d	586.34	0	7	56	2	24	c	j	686.21	1	100	100	1	0
178	6	40	N	N	d	519.95	0	3	24	7	56	c	n	569.57	1	1000	100	0	0
178	6	41	N	N	d	486.17	0	7	24	4	56	i	j	553.65	1	1000	1000	0	0
178	6	42	P	P	d	369.41	1	8	56	3	24	c	j	1018.11	1	1000	100	1	0
178	6	43	P	P	f	553.03	1	4	24	9	56	c	n	536.72	1	100	1000	0	0
178	6	44	P	P	f	352.05	1	2	24	7	56	c	n	469.49	1	1000	1000	0	0
178	6	45	N	N	d	652.81	0	8	56	3	24	c	j	419.5	1	100	1000	1	0
178	6	46	P	P	f	753.12	1	8	24	4	56	i	n	1353.78	1	100	100	1	0
178	6	47	N	N	d	703.02	0	2	24	7	56	c	n	770.24	1	1000	100	1	0
178	6	48	N	N	d	686.19	0	3	24	8	56	c	n	618.86	1	100	1000	0	0
178	6	49	N	N	d	652.5	0	2	56	8	24	i	n	753.51	1	1000	1000	0	0
178	6	50	P	P	d	436.15	1	8	24	4	56	i	j	702.52	0	1000	1000	1	0
178	6	51	N	N	f	903.36	0	3	56	8	24	i	n	1537.33	1	1000	100	1	1
178	6	52	P	P	f	970.21	1	2	56	9	24	i	j	985.81	1	1000	100	1	0
178	6	53	P	P	f	819.35	1	3	56	8	24	i	j	669.71	1	100	100	0	0
178	6	54	P	P	f	769.74	1	7	24	2	56	i	n	837.35	1	100	100	0	0
178	6	55	P	P	f	650.99	1	3	24	8	56	c	n	803.8	1	1000	100	0	0
178	6	56	N	N	d	569.79	0	2	24	8	56	c	n	1320.34	1	100	1000	1	0
178	6	57	N	N	d	2371.56	0	4	24	8	56	c	n	670.34	1	1000	1000	0	0
178	6	58	N	N	d	735.8	0	2	56	7	24	i	j	537.47	0	100	1000	0	0
178	6	59	P	P	f	970.12	1	7	56	3	24	c	j	435.68	1	100	1000	1	1
178	6	60	P	P	f	569.41	1	2	24	8	56	c	n	602.71	1	100	100	0	0
178	6	61	N	N	d	836.7	0	8	24	3	56	i	j	518.02	1	100	1000	1	0
178	6	62	P	P	d	519.31	1	9	56	2	24	c	j	1019.42	1	100	100	1	0
178	6	63	P	P	f	435.75	1	8	56	4	24	c	j	686.87	1	1000	100	0	0
178	6	64	P	P	f	586.43	1	2	56	9	24	i	j	1204.46	1	100	1000	0	0
178	6	65	N	N	d	4457.23	0	3	24	8	56	c	n	703.69	1	100	100	1	0
