subj	block	trial	task_cue	task	choice_resp	choiceRT	choice_acc	topnum	topsize	botnum	botsize	cong	task_resp	taskRT	task_acc	RSI	CSI	altRep	E1
183	1	1	?	P	f	963.96	NA	7	24	4	56	i	n	778.75	1	100	1000	-1	0
183	1	2	?	N	d	670.64	NA	3	56	8	24	i	j	815.71	0	100	100	0	0
183	1	3	?	P	f	650.85	NA	8	56	2	24	c	j	501.78	1	1000	1000	0	1
183	1	4	?	P	f	356.17	NA	8	56	3	24	c	j	569.12	1	1000	1000	0	0
183	1	5	?	N	d	537.37	NA	2	24	7	56	c	n	477.09	1	1000	1000	0	0
183	1	6	?	P	f	433.26	NA	3	56	8	24	i	j	996.55	1	1000	100	0	0
183	1	7	?	P	f	1042.65	NA	7	56	4	24	c	j	515.49	1	100	1000	0	0
183	1	8	?	N	d	269.39	NA	2	24	9	56	c	n	385.65	1	1000	1000	0	0
183	1	9	?	P	f	617.35	NA	8	56	3	24	c	j	670.5	1	100	100	0	0
183	1	10	?	P	f	526.91	NA	7	56	4	24	c	j	629.84	1	1000	1000	0	0
183	1	11	?	N	d	706.01	NA	3	24	9	56	c	n	557.24	1	100	1000	0	0
183	1	12	?	N	d	554.5	NA	9	56	4	24	c	j	623.52	1	100	1000	0	0
183	1	13	?	N	d	271.16	NA	2	56	8	24	i	n	522.99	1	1000	1000	0	0
183	1	14	?	P	f	665.62	NA	7	56	4	24	c	j	420.91	1	100	1000	0	0
183	1	15	?	N	d	550.96	NA	2	56	8	24	i	n	513.16	1	100	1000	0	0
183	1	16	?	P	f	-331.11	NA	7	56	3	24	c	j	772.94	1	1000	1000	0	0
183	1	17	?	N	d	271.08	NA	9	56	4	24	c	j	602.14	1	1000	100	0	0
183	1	18	?	N	d	931.16	NA	8	24	3	56	i	j	1095.04	1	100	1000	0	0
183	1	19	?	P	f	275.62	NA	2	24	7	56	c	n	595.05	1	1000	100	0	0
183	1	20	?	P	f	-4.26	NA	3	24	8	56	c	n	677.75	1	1000	100	0	0
183	1	21	?	P	f	614.46	NA	4	56	8	24	i	j	723.54	1	100	1000	0	0
183	1	22	?	N	d	271.27	NA	3	56	9	24	i	n	579.46	1	1000	100	0	0
183	1	23	?	N	d	277.66	NA	7	24	2	56	i	n	382.68	0	1000	1000	0	0
183	1	24	?	N	d	495.21	NA	8	56	3	24	c	j	462.53	1	1000	100	0	1
183	1	25	?	N	d	423.74	NA	8	24	4	56	i	j	614.88	1	1000	1000	0	0
183	1	26	?	P	f	246.96	NA	2	24	8	56	c	n	497.86	1	100	1000	0	0
183	1	27	?	P	f	516.46	NA	7	24	4	56	i	n	1177.11	1	100	100	0	0
183	1	28	?	N	d	162.42	NA	7	56	3	24	c	j	790.18	1	100	100	0	0
183	1	29	?	P	f	-517.76	NA	7	24	2	56	i	n	711.34	1	1000	100	0	0
183	1	30	?	N	d	794.38	NA	7	24	3	56	i	j	777.47	1	100	100	0	0
183	1	31	?	P	f	-434.93	NA	8	24	2	56	i	n	478.67	1	1000	100	0	0
183	1	32	?	P	f	423.58	NA	7	24	4	56	i	n	378.06	1	1000	1000	0	0
183	1	33	?	N	d	243.67	NA	2	24	7	56	c	n	416.69	1	100	1000	0	0
183	1	34	?	N	d	507.49	NA	7	24	3	56	i	j	661.23	1	100	100	0	0
183	1	35	?	P	f	320.34	NA	9	24	2	56	i	j	510.48	0	1000	1000	0	0
183	1	36	?	P	f	241.47	NA	8	56	4	24	c	j	583.34	1	1000	100	0	1
183	1	37	?	N	d	395.41	NA	3	56	8	24	i	n	1081.99	1	100	100	0	0
183	1	38	?	P	f	526.82	NA	4	24	9	56	c	n	684.9	1	1000	1000	0	0
183	1	39	?	N	d	672.4	NA	7	24	2	56	i	j	614.67	1	100	100	0	0
183	1	40	?	N	d	324.78	NA	8	24	4	56	i	j	763.05	1	100	1000	0	0
183	1	41	?	P	f	-590.49	NA	3	24	9	56	c	n	548.96	1	1000	100	0	0
183	1	42	?	P	f	-81.31	NA	7	24	2	56	i	j	674.03	0	1000	1000	0	0
183	1	43	?	P	f	159.38	NA	8	56	4	24	c	j	1181.5	1	1000	100	0	1
183	1	44	?	N	d	-442.64	NA	3	24	8	56	c	n	842.37	1	1000	100	0	0
183	1	45	?	N	d	488.47	NA	9	24	2	56	i	j	1277.55	1	100	100	0	0
183	1	46	?	N	d	568.04	NA	4	24	9	56	c	n	723.16	1	100	100	0	0
183	1	47	?	P	f	-326.89	NA	3	56	7	24	i	j	1441.92	1	1000	100	0	0
183	1	48	?	P	f	746.76	NA	4	24	8	56	c	n	485.62	1	100	1000	0	0
183	1	49	?	N	d	414.46	NA	2	56	8	24	i	n	509.94	1	100	1000	0	0
183	1	50	?	P	f	-537.18	NA	4	56	7	24	i	j	859.84	1	1000	1000	0	0
183	1	51	?	P	f	556.41	NA	2	24	9	56	c	n	536.11	1	100	100	0	0
183	1	52	?	N	d	335.1	NA	9	24	4	56	i	j	959.82	1	1000	100	0	0
183	1	53	?	P	f	645.77	NA	9	56	2	24	c	j	1150.58	1	100	100	0	0
183	1	54	?	P	f	393.49	NA	4	24	7	56	c	n	651.55	1	1000	1000	0	0
183	1	55	?	N	d	469.8	NA	2	56	8	24	i	n	1027.13	1	100	1000	0	0
183	1	56	?	N	d	961.92	NA	9	24	4	56	i	j	1058.46	1	100	1000	0	0
183	1	57	?	P	f	317.15	NA	7	24	2	56	i	n	1200.51	1	1000	100	0	0
183	1	58	?	P	f	506.22	NA	8	56	4	24	c	j	535.53	1	100	1000	0	0
183	1	59	?	P	f	345.84	NA	3	56	8	24	i	j	913.01	1	1000	1000	0	0
183	1	60	?	N	d	211.26	NA	4	24	8	56	c	n	1059.19	1	100	100	0	0
183	1	61	?	N	d	644.81	NA	3	56	9	24	i	n	1498.41	1	100	100	0	0
183	1	62	?	N	d	549.55	NA	2	56	7	24	i	n	984.01	1	100	1000	0	0
183	1	63	?	P	f	1046.24	NA	4	56	7	24	i	j	576.79	1	1000	100	0	0
183	1	64	?	P	f	590.35	NA	9	56	3	24	c	j	627.33	1	100	100	0	0
183	1	65	?	N	d	61.41	NA	4	24	8	56	c	n	902.25	1	100	100	0	0
183	2	1	?	N	d	1097.15	NA	8	24	4	56	i	n	1026.71	0	1000	100	-1	0
183	2	2	?	P	f	905.34	NA	3	56	9	24	i	j	703.68	1	100	100	0	1
183	2	3	?	N	d	414.13	NA	4	24	7	56	c	n	656.13	1	1000	1000	0	0
183	2	4	?	N	d	969.69	NA	8	56	3	24	c	j	441.44	1	100	1000	0	0
183	2	5	?	P	f	508.95	NA	8	56	2	24	c	j	921.88	1	1000	100	0	0
183	2	6	?	P	f	516.39	NA	4	56	7	24	i	n	1119.34	0	1000	1000	0	0
183	2	7	?	P	f	1629.26	NA	8	56	2	24	c	j	405.59	1	100	1000	0	1
183	2	8	?	N	d	281.5	NA	4	56	8	24	i	j	646.32	0	1000	100	0	0
183	2	9	?	N	d	559.67	NA	2	24	7	56	c	n	967.01	1	1000	100	0	1
183	2	10	?	N	d	2408.41	NA	7	24	4	56	i	j	534.85	1	100	1000	0	0
183	2	11	?	P	f	300.77	NA	7	56	2	24	c	j	576.23	1	100	100	0	0
183	2	12	?	P	f	353.54	NA	7	56	4	24	c	j	534.12	1	100	100	0	0
183	2	13	?	N	d	137.08	NA	2	56	9	24	i	j	622.28	0	100	1000	0	0
183	2	14	?	N	d	-281.53	NA	3	24	7	56	c	n	564.96	1	1000	100	0	1
183	2	15	?	P	f	-329.19	NA	2	24	9	56	c	n	1461.97	1	1000	1000	0	0
183	2	16	?	N	d	1086.7	NA	3	24	7	56	c	n	857.93	1	100	1000	0	0
183	2	17	?	P	f	553.18	NA	2	56	7	24	i	j	790.87	1	1000	1000	0	0
183	2	18	?	N	d	361.91	NA	3	56	8	24	i	n	1240.96	1	1000	100	0	0
183	2	19	?	N	d	1114.79	NA	9	24	4	56	i	j	600.02	1	100	1000	0	0
183	2	20	?	N	d	327.22	NA	2	24	9	56	c	n	811.07	1	100	100	0	0
183	2	21	?	P	f	84.8	NA	9	24	3	56	i	n	914.71	1	100	100	0	0
183	2	22	?	P	f	268.55	NA	2	56	9	24	i	j	520.97	1	100	100	0	0
183	2	23	?	N	d	-756.29	NA	8	56	4	24	c	j	932.9	1	1000	1000	0	0
183	2	24	?	N	d	224.09	NA	9	24	3	56	i	j	909.75	1	1000	100	0	0
183	2	25	?	P	f	263.08	NA	2	56	7	24	i	j	1106.38	1	100	100	0	0
183	2	26	?	N	d	-721.08	NA	9	56	3	24	c	j	687.12	1	1000	1000	0	0
183	2	27	?	N	d	933.27	NA	8	24	4	56	i	j	668.84	1	100	1000	0	0
183	2	28	?	P	f	120.87	NA	7	24	3	56	i	n	927.87	1	100	1000	0	0
183	2	29	?	P	f	376.74	NA	4	24	7	56	c	n	608.16	1	1000	100	0	0
183	2	30	?	N	d	283.59	NA	2	24	9	56	c	n	962.5	1	1000	1000	0	0
183	2	31	?	N	d	355.48	NA	8	56	3	24	c	j	490.0	1	1000	1000	0	0
183	2	32	?	P	f	-697.46	NA	7	24	2	56	i	n	621.07	1	1000	1000	0	0
183	2	33	?	P	f	482.62	NA	9	56	3	24	c	j	567.4	1	1000	1000	0	0
183	2	34	?	N	d	-731.74	NA	7	24	2	56	i	j	1082.72	1	1000	100	0	0
183	2	35	?	N	d	303.78	NA	7	56	3	24	c	j	668.82	1	100	100	0	0
183	2	36	?	P	f	290.38	NA	4	24	8	56	c	n	468.2	1	100	1000	0	0
183	2	37	?	N	d	233.44	NA	2	56	9	24	i	n	905.59	1	1000	1000	0	0
183	2	38	?	N	d	405.96	NA	4	56	8	24	i	n	660.04	1	100	100	0	0
183	2	39	?	P	f	129.03	NA	2	24	7	56	c	n	857.63	1	100	100	0	0
183	2	40	?	P	f	5403.43	NA	9	56	3	24	c	j	1207.31	1	100	1000	0	0
183	2	41	?	P	f	362.4	NA	2	56	8	24	i	j	1239.65	1	100	1000	0	0
183	2	42	?	P	f	136.25	NA	8	24	3	56	i	n	712.13	1	100	1000	0	0
183	2	43	?	N	d	-703.7	NA	2	56	8	24	i	n	1311.82	1	1000	1000	0	0
183	2	44	?	N	d	434.29	NA	7	56	3	24	c	j	665.99	1	100	100	0	0
183	2	45	?	P	f	259.68	NA	2	24	7	56	c	n	763.36	1	100	1000	0	0
183	2	46	?	N	d	-364.56	NA	7	24	4	56	i	n	582.58	0	1000	1000	0	0
183	2	47	?	N	d	1687.57	NA	3	24	8	56	c	n	634.16	1	100	100	0	1
183	2	48	?	P	f	304.89	NA	9	56	2	24	c	j	804.9	1	1000	100	0	0
183	2	49	?	P	f	550.47	NA	9	24	3	56	i	n	603.37	1	1000	100	0	0
183	2	50	?	N	d	290.61	NA	8	24	2	56	i	j	559.27	1	1000	1000	0	0
183	2	51	?	P	f	578.62	NA	4	24	8	56	c	n	833.8	1	100	1000	0	0
183	2	52	?	P	f	203.31	NA	2	24	7	56	c	n	646.59	1	100	100	0	0
183	2	53	?	N	d	-724.99	NA	8	56	3	24	c	n	458.74	0	1000	100	0	0
183	2	54	?	N	d	938.18	NA	9	24	4	56	i	j	601.25	1	1000	100	0	1
183	2	55	?	P	f	456.61	NA	3	24	7	56	c	n	762.35	1	1000	100	0	0
183	2	56	?	N	d	288.21	NA	2	56	8	24	i	n	410.23	1	1000	1000	0	0
183	2	57	?	N	d	4629.78	NA	9	56	4	24	c	j	729.27	1	100	1000	0	0
183	2	58	?	N	d	366.82	NA	7	24	3	56	i	j	986.61	1	1000	100	0	0
183	2	59	?	P	f	76.59	NA	7	24	2	56	i	n	809.07	1	100	1000	0	0
183	2	60	?	N	d	330.33	NA	4	24	9	56	c	n	576.56	1	1000	1000	0	0
183	2	61	?	P	f	332.17	NA	2	56	8	24	i	n	950.17	0	100	100	0	0
183	2	62	?	N	d	483.71	NA	4	56	7	24	i	n	693.3	1	1000	100	0	1
183	2	63	?	P	f	354.07	NA	7	24	3	56	i	j	692.3	0	100	100	0	0
183	2	64	?	P	f	2174.78	NA	9	56	2	24	c	j	907.38	1	1000	100	0	1
183	2	65	?	P	f	362.66	NA	7	24	4	56	i	n	813.23	1	100	100	0	0
183	3	1	?	N	d	656.12	NA	9	56	2	24	c	j	1717.79	1	100	100	-1	0
183	3	2	?	N	d	563.66	NA	9	24	4	56	i	j	644.66	1	100	100	0	0
183	3	3	?	P	f	130.31	NA	7	24	3	56	i	n	565.61	1	100	1000	0	0
183	3	4	?	N	d	461.03	NA	4	56	7	24	i	n	867.68	1	100	100	0	0
183	3	5	?	P	f	-45.68	NA	2	24	9	56	c	n	632.03	1	1000	100	0	0
183	3	6	?	N	d	381.93	NA	3	24	9	56	c	n	747.58	1	100	1000	0	0
183	3	7	?	P	f	-712.84	NA	4	56	9	24	i	j	717.91	1	1000	1000	0	0
183	3	8	?	N	d	643.39	NA	2	24	7	56	c	n	426.2	1	100	1000	0	0
183	3	9	?	P	f	410.96	NA	9	56	4	24	c	j	551.88	1	100	100	0	0
183	3	10	?	N	d	593.09	NA	8	56	3	24	c	j	808.98	1	1000	1000	0	0
183	3	11	?	N	d	409.19	NA	2	24	9	56	c	n	651.35	1	100	100	0	0
183	3	12	?	P	f	-578.92	NA	4	56	7	24	i	j	1020.9	1	1000	1000	0	0
183	3	13	?	P	f	526.51	NA	2	56	9	24	i	n	506.78	0	1000	100	0	0
183	3	14	?	P	f	338.78	NA	3	24	8	56	c	n	580.02	1	1000	1000	0	1
183	3	15	?	N	d	333.54	NA	4	24	8	56	c	n	591.91	1	1000	1000	0	0
183	3	16	?	P	f	463.7	NA	2	24	8	56	c	n	926.99	1	1000	100	0	0
183	3	17	?	P	f	770.07	NA	4	56	8	24	i	j	623.42	1	100	100	0	0
183	3	18	?	N	d	519.96	NA	3	24	7	56	c	n	499.42	1	100	100	0	0
183	3	19	?	N	d	528.48	NA	4	24	9	56	c	n	495.64	1	1000	1000	0	0
183	3	20	?	P	f	367.26	NA	7	24	3	56	i	n	828.8	1	1000	100	0	0
183	3	21	?	P	f	377.62	NA	9	56	4	24	c	j	607.74	1	1000	1000	0	0
183	3	22	?	P	f	846.8	NA	3	56	7	24	i	j	588.28	1	100	100	0	0
183	3	23	?	N	d	405.2	NA	7	56	4	24	c	j	591.14	1	100	1000	0	0
183	3	24	?	P	f	429.55	NA	7	24	2	56	i	n	970.74	1	1000	100	0	0
183	3	25	?	N	d	2868.46	NA	3	56	7	24	i	j	624.55	0	100	100	0	0
183	3	26	?	N	d	520.89	NA	4	24	8	56	c	n	635.82	1	100	100	0	1
183	3	27	?	N	d	637.78	NA	2	56	7	24	i	n	1254.35	1	1000	100	0	0
183	3	28	?	N	d	584.13	NA	7	24	3	56	i	j	644.21	1	100	100	0	0
183	3	29	?	P	f	309.43	NA	4	24	7	56	c	n	629.52	1	100	100	0	0
183	3	30	?	P	f	570.5	NA	2	56	8	24	i	j	802.4	1	1000	1000	0	0
183	3	31	?	P	f	527.12	NA	3	24	7	56	c	n	629.65	1	100	1000	0	0
183	3	32	?	N	d	288.26	NA	8	56	2	24	c	n	535.5	0	1000	100	0	0
183	3	33	?	N	d	458.03	NA	8	56	3	24	c	j	403.09	1	1000	100	0	1
183	3	34	?	N	d	481.82	NA	8	24	4	56	i	j	871.72	1	1000	100	0	0
183	3	35	?	P	f	325.18	NA	9	56	3	24	c	j	549.69	1	1000	1000	0	0
183	3	36	?	P	f	314.25	NA	4	24	8	56	c	n	533.99	1	1000	100	0	0
183	3	37	?	P	f	607.45	NA	8	24	3	56	i	n	718.08	1	1000	100	0	0
183	3	38	?	N	d	405.96	NA	8	56	4	24	c	j	536.29	1	1000	100	0	0
183	3	39	?	N	d	582.26	NA	2	56	8	24	i	n	466.33	1	1000	1000	0	0
183	3	40	?	P	f	505.85	NA	4	24	8	56	c	n	501.36	1	1000	1000	0	0
183	3	41	?	P	f	964.4	NA	8	24	3	56	i	n	824.66	1	100	1000	0	0
183	3	42	?	N	d	486.41	NA	7	56	2	24	c	j	758.56	1	100	100	0	0
183	3	43	?	N	d	453.2	NA	9	24	3	56	i	j	690.77	1	1000	100	0	0
183	3	44	?	P	f	317.04	NA	8	24	2	56	i	n	1049.21	1	100	100	0	0
183	3	45	?	P	f	2969.86	NA	9	24	4	56	i	n	467.09	1	100	1000	0	0
183	3	46	?	N	d	664.59	NA	8	24	3	56	i	n	1162.96	0	1000	100	0	0
183	3	47	?	N	d	525.53	NA	7	56	4	24	c	j	852.97	1	100	1000	0	1
183	3	48	?	N	d	538.08	NA	3	24	9	56	c	n	590.73	1	100	1000	0	0
183	3	49	?	P	f	350.9	NA	4	56	7	24	i	j	429.64	1	100	1000	0	0
183	3	50	?	N	d	-578.81	NA	3	24	8	56	c	n	549.05	1	1000	100	0	0
183	3	51	?	P	f	1506.93	NA	9	56	2	24	c	j	614.27	1	1000	100	0	0
183	3	52	?	P	f	606.43	NA	7	56	4	24	c	j	615.22	1	100	100	0	0
183	3	53	?	N	d	1225.73	NA	9	56	2	24	c	j	1325.3	1	100	100	0	0
183	3	54	?	N	d	453.74	NA	3	56	8	24	i	n	678.91	1	100	1000	0	0
183	3	55	?	P	f	310.93	NA	7	24	4	56	i	n	1305.18	1	1000	1000	0	0
183	3	56	?	P	f	573.77	NA	9	56	3	24	c	j	738.82	1	100	1000	0	0
183	3	57	?	N	d	394.17	NA	8	24	2	56	i	j	563.2	1	100	1000	0	0
183	3	58	?	N	d	390.12	NA	4	56	9	24	i	n	558.75	1	1000	1000	0	0
183	3	59	?	P	f	-324.47	NA	2	56	7	24	i	j	1241.93	1	1000	1000	0	0
183	3	60	?	P	f	249.56	NA	9	24	3	56	i	n	680.78	1	1000	1000	0	0
183	3	61	?	N	d	662.29	NA	7	24	2	56	i	j	1554.1	1	100	1000	0	0
183	3	62	?	P	f	402.94	NA	8	56	3	24	c	j	3592.09	1	1000	1000	0	0
183	3	63	?	P	f	2791.3	NA	7	24	4	56	i	n	860.96	1	100	100	0	0
183	3	64	?	N	d	468.14	NA	7	56	2	24	c	j	755.44	1	100	1000	0	0
183	3	65	?	N	d	721.18	NA	9	24	4	56	i	n	724.06	0	100	1000	0	0
183	4	1	?	P	f	683.49	NA	9	56	2	24	c	j	490.62	1	100	100	-1	0
183	4	2	?	N	d	519.13	NA	7	56	4	24	c	n	734.77	0	1000	100	0	0
183	4	3	?	P	f	582.65	NA	9	56	2	24	c	j	487.95	1	100	1000	0	1
183	4	4	?	N	d	945.94	NA	7	56	3	24	c	j	553.01	1	100	100	0	0
183	4	5	?	P	f	336.59	NA	4	56	9	24	i	j	487.14	1	100	1000	0	0
183	4	6	?	N	d	201.91	NA	9	24	2	56	i	j	610.01	1	100	1000	0	0
183	4	7	?	N	d	331.86	NA	8	56	4	24	c	j	624.51	1	100	100	0	0
183	4	8	?	N	d	498.17	NA	3	24	7	56	c	n	533.38	1	100	1000	0	0
183	4	9	?	P	f	404.36	NA	7	56	4	24	c	j	578.75	1	1000	1000	0	0
183	4	10	?	P	f	412.78	NA	2	24	8	56	c	n	554.6	1	100	100	0	0
183	4	11	?	N	d	268.9	NA	3	24	9	56	c	n	452.98	1	1000	1000	0	0
183	4	12	?	N	d	336.0	NA	4	56	8	24	i	n	532.92	1	100	100	0	0
183	4	13	?	P	f	360.77	NA	9	24	2	56	i	j	562.9	0	100	100	0	0
183	4	14	?	P	f	437.02	NA	7	56	4	24	c	j	633.89	1	100	1000	0	1
183	4	15	?	N	d	292.91	NA	7	56	3	24	c	j	494.93	1	1000	100	0	0
183	4	16	?	N	d	332.33	NA	9	56	2	24	c	j	411.34	1	1000	100	0	0
183	4	17	?	P	f	298.34	NA	3	24	9	56	c	n	567.64	1	1000	100	0	0
183	4	18	?	P	f	424.73	NA	8	56	4	24	c	j	492.82	1	100	100	0	0
183	4	19	?	N	d	285.1	NA	8	56	2	24	c	j	452.56	1	1000	1000	0	0
183	4	20	?	P	f	392.31	NA	8	24	3	56	i	n	909.97	1	100	100	0	0
183	4	21	?	N	d	-559.45	NA	2	24	8	56	c	n	646.28	1	1000	1000	0	0
183	4	22	?	N	d	447.48	NA	4	24	7	56	c	n	510.14	1	100	100	0	0
183	4	23	?	P	f	-671.27	NA	8	56	2	24	c	j	489.33	1	1000	1000	0	0
183	4	24	?	N	d	304.83	NA	3	56	8	24	i	n	1479.58	1	1000	100	0	0
183	4	25	?	P	f	401.28	NA	2	56	7	24	i	j	835.39	1	100	100	0	0
183	4	26	?	N	d	727.33	NA	4	56	7	24	i	n	1215.97	1	1000	100	0	0
183	4	27	?	P	f	347.17	NA	8	24	3	56	i	n	622.12	1	1000	1000	0	0
183	4	28	?	P	f	337.37	NA	2	56	7	24	i	j	443.89	1	1000	1000	0	0
183	4	29	?	N	d	388.48	NA	4	24	8	56	c	n	670.27	1	100	100	0	0
183	4	30	?	N	d	381.17	NA	2	24	7	56	c	n	431.56	1	100	1000	0	0
183	4	31	?	P	f	190.94	NA	9	24	4	56	i	n	671.73	1	100	1000	0	0
183	4	32	?	N	d	315.76	NA	2	24	8	56	c	n	939.62	1	100	100	0	0
183	4	33	?	P	f	260.03	NA	8	24	3	56	i	n	652.33	1	100	1000	0	0
183	4	34	?	N	d	378.9	NA	8	24	2	56	i	j	822.87	1	1000	1000	0	0
183	4	35	?	P	f	574.54	NA	3	24	9	56	c	n	425.85	1	1000	100	0	0
183	4	36	?	P	f	588.77	NA	4	56	9	24	i	j	512.88	1	1000	100	0	0
183	4	37	?	N	d	570.25	NA	3	56	7	24	i	n	746.9	1	1000	100	0	0
183	4	38	?	P	f	818.73	NA	2	56	9	24	i	j	1185.2	1	100	100	0	0
183	4	39	?	N	d	2601.02	NA	7	56	3	24	c	j	657.34	1	100	100	0	0
183	4	40	?	P	f	373.24	NA	9	56	2	24	c	j	693.19	1	1000	1000	0	0
183	4	41	?	N	d	262.83	NA	4	24	8	56	c	n	396.25	1	1000	1000	0	0
183	4	42	?	P	f	448.24	NA	2	56	7	24	i	j	690.72	1	100	100	0	0
183	4	43	?	N	d	306.0	NA	4	56	7	24	i	n	1087.15	1	1000	100	0	0
183	4	44	?	P	f	482.86	NA	8	24	2	56	i	n	861.83	1	100	100	0	0
183	4	45	?	N	d	569.03	NA	4	56	9	24	i	n	475.18	1	100	1000	0	0
183	4	46	?	P	f	317.8	NA	7	24	2	56	i	n	609.57	1	1000	1000	0	0
183	4	47	?	N	d	544.82	NA	8	24	3	56	i	j	979.72	1	1000	100	0	0
183	4	48	?	P	f	559.32	NA	4	24	8	56	c	n	966.04	1	100	1000	0	0
183	4	49	?	P	f	393.41	NA	3	24	9	56	c	n	450.05	1	100	1000	0	0
183	4	50	?	N	d	281.0	NA	8	24	2	56	i	j	668.36	1	1000	100	0	0
183	4	51	?	N	d	311.97	NA	3	56	8	24	i	j	552.37	0	1000	1000	0	0
183	4	52	?	P	f	761.5	NA	7	24	4	56	i	n	473.57	1	1000	1000	0	1
183	4	53	?	P	f	924.58	NA	9	56	2	24	c	j	683.03	1	100	1000	0	0
183	4	54	?	N	d	-620.6	NA	8	56	3	24	c	j	619.74	1	1000	100	0	0
183	4	55	?	N	d	516.14	NA	8	24	4	56	i	j	1861.78	1	100	1000	0	0
183	4	56	?	N	d	60.65	NA	7	24	3	56	i	j	867.27	1	1000	1000	0	0
183	4	57	?	N	d	495.98	NA	9	24	2	56	i	j	609.86	1	100	1000	0	0
183	4	58	?	P	f	-649.9	NA	3	24	8	56	c	n	421.0	1	1000	1000	0	0
183	4	59	?	P	f	235.01	NA	2	56	8	24	i	j	644.9	1	1000	100	0	0
183	4	60	?	P	f	457.08	NA	8	24	4	56	i	n	592.14	1	100	1000	0	0
183	4	61	?	N	d	409.3	NA	7	24	2	56	i	j	607.51	1	100	100	0	0
183	4	62	?	N	d	565.12	NA	8	56	3	24	c	j	645.38	1	100	1000	0	0
183	4	63	?	P	f	299.31	NA	2	24	8	56	c	n	568.49	1	1000	100	0	0
183	4	64	?	P	f	390.57	NA	4	56	7	24	i	j	547.95	1	1000	1000	0	0
183	4	65	?	N	d	334.92	NA	2	24	7	56	c	n	599.51	1	1000	100	0	0
183	5	1	?	N	d	745.03	NA	3	56	9	24	i	j	574.64	0	100	1000	-1	0
183	5	2	?	P	f	464.15	NA	8	56	2	24	c	j	824.47	1	100	1000	0	1
183	5	3	?	N	d	430.78	NA	8	24	3	56	i	j	689.63	1	100	1000	0	0
183	5	4	?	P	f	395.09	NA	8	24	4	56	i	n	519.84	1	100	100	0	0
183	5	5	?	N	d	493.63	NA	2	56	7	24	i	n	1001.06	1	100	1000	0	0
183	5	6	?	P	f	434.1	NA	4	56	7	24	i	j	581.65	1	1000	100	0	0
183	5	7	?	N	d	437.88	NA	7	24	2	56	i	n	1389.31	0	100	100	0	0
183	5	8	?	P	f	1441.14	NA	4	56	8	24	i	j	3630.34	1	100	100	0	1
183	5	9	?	N	d	353.74	NA	9	24	2	56	i	j	578.34	1	1000	1000	0	0
183	5	10	?	P	f	343.57	NA	4	24	8	56	c	n	1383.29	1	1000	1000	0	0
183	5	11	?	N	d	2216.72	NA	2	24	8	56	c	n	847.88	1	100	1000	0	0
183	5	12	?	P	f	898.6	NA	7	24	3	56	i	n	588.49	1	100	1000	0	0
183	5	13	?	P	f	259.07	NA	4	56	9	24	i	j	684.56	1	1000	1000	0	0
183	5	14	?	N	d	367.03	NA	3	56	7	24	i	n	963.7	1	1000	100	0	0
183	5	15	?	N	d	447.46	NA	8	24	2	56	i	j	589.38	1	100	100	0	0
183	5	16	?	P	f	293.25	NA	4	56	7	24	i	j	1068.87	1	1000	100	0	0
183	5	17	?	P	f	277.42	NA	7	24	2	56	i	n	1047.13	1	1000	100	0	0
183	5	18	?	N	d	1099.61	NA	4	56	9	24	i	n	758.83	1	1000	100	0	0
183	5	19	?	P	f	364.17	NA	2	24	8	56	c	n	543.07	1	1000	1000	0	0
183	5	20	?	N	d	523.18	NA	4	56	9	24	i	n	1009.24	1	100	100	0	0
183	5	21	?	P	f	475.92	NA	8	24	2	56	i	n	1822.12	1	100	1000	0	0
183	5	22	?	N	d	629.17	NA	7	24	4	56	i	j	801.26	1	100	100	0	0
183	5	23	?	P	f	349.51	NA	2	24	7	56	c	n	681.25	1	1000	100	0	0
183	5	24	?	P	f	448.33	NA	4	56	8	24	i	j	488.63	1	1000	100	0	0
183	5	25	?	N	d	461.6	NA	3	56	9	24	i	n	483.85	1	1000	1000	0	0
183	5	26	?	P	f	366.73	NA	4	24	7	56	c	n	704.08	1	1000	1000	0	0
183	5	27	?	N	d	1799.86	NA	3	56	9	24	i	n	702.34	1	100	100	0	0
183	5	28	?	P	f	369.22	NA	2	24	8	56	c	n	510.36	1	100	100	0	0
183	5	29	?	N	d	321.29	NA	7	56	3	24	c	j	690.62	1	100	1000	0	0
183	5	30	?	P	f	271.77	NA	9	56	2	24	c	j	501.95	1	1000	100	0	0
183	5	31	?	N	d	435.46	NA	4	56	9	24	i	n	632.34	1	1000	1000	0	0
183	5	32	?	P	f	405.9	NA	9	56	3	24	c	j	535.52	1	100	100	0	0
183	5	33	?	N	d	255.77	NA	7	56	2	24	c	j	556.87	1	1000	1000	0	0
183	5	34	?	P	f	294.65	NA	8	56	3	24	c	j	541.67	1	1000	100	0	0
183	5	35	?	P	f	328.97	NA	4	56	9	24	i	j	542.87	1	1000	100	0	0
183	5	36	?	N	d	307.69	NA	2	24	7	56	c	n	436.34	1	1000	100	0	0
183	5	37	?	N	d	460.15	NA	3	56	9	24	i	n	596.33	1	100	100	0	0
183	5	38	?	N	d	964.85	NA	9	56	4	24	c	j	556.02	1	100	100	0	0
183	5	39	?	P	f	292.87	NA	7	56	2	24	c	j	426.55	1	1000	1000	0	0
183	5	40	?	N	d	443.63	NA	8	56	4	24	c	j	551.31	1	1000	100	0	0
183	5	41	?	N	d	469.53	NA	3	24	8	56	c	n	532.45	1	100	1000	0	0
183	5	42	?	P	f	336.67	NA	9	56	4	24	c	j	736.45	1	1000	100	0	0
183	5	43	?	P	f	673.44	NA	7	56	3	24	c	j	602.86	1	100	1000	0	0
183	5	44	?	N	d	323.68	NA	2	56	9	24	i	n	626.4	1	1000	1000	0	0
183	5	45	?	N	d	393.82	NA	3	24	8	56	c	n	562.39	1	100	1000	0	0
183	5	46	?	P	f	344.13	NA	2	24	7	56	c	n	507.89	1	1000	100	0	0
183	5	47	?	N	d	543.0	NA	3	24	8	56	c	n	561.48	1	100	1000	0	0
183	5	48	?	N	d	603.06	NA	8	56	2	24	c	j	578.65	1	100	100	0	0
183	5	49	?	P	f	433.79	NA	8	24	4	56	i	n	546.16	1	1000	1000	0	0
183	5	50	?	N	d	322.0	NA	8	24	3	56	i	j	1064.06	1	1000	1000	0	0
183	5	51	?	P	f	401.95	NA	7	56	4	24	c	j	620.75	1	1000	1000	0	0
183	5	52	?	P	f	821.02	NA	2	24	9	56	c	n	523.23	1	100	100	0	0
183	5	53	?	P	f	710.24	NA	4	24	7	56	c	n	662.96	1	1000	100	0	0
183	5	54	?	N	d	458.4	NA	8	24	2	56	i	j	583.01	1	100	1000	0	0
183	5	55	?	N	d	416.0	NA	7	56	4	24	c	j	646.35	1	1000	1000	0	0
183	5	56	?	P	f	300.86	NA	3	56	8	24	i	n	714.98	0	1000	1000	0	0
183	5	57	?	P	f	786.13	NA	4	24	8	56	c	n	587.83	1	1000	1000	0	1
183	5	58	?	N	d	302.56	NA	3	56	8	24	i	n	1230.21	1	1000	100	0	0
183	5	59	?	N	d	470.29	NA	7	56	2	24	c	j	589.98	1	100	100	0	0
183	5	60	?	P	f	384.03	NA	3	24	9	56	c	n	644.01	1	100	100	0	0
183	5	61	?	P	f	343.0	NA	7	24	4	56	i	j	651.9	0	100	1000	0	0
183	5	62	?	P	f	750.96	NA	2	56	9	24	i	j	704.11	1	100	1000	0	1
183	5	63	?	N	d	382.02	NA	9	56	3	24	c	j	544.63	1	100	1000	0	0
183	5	64	?	N	d	1120.99	NA	9	24	2	56	i	j	1219.0	1	100	1000	0	0
183	5	65	?	N	d	424.95	NA	3	24	8	56	c	n	515.88	1	100	100	0	0
183	6	1	?	N	d	2707.43	NA	9	56	4	24	c	j	612.6	1	1000	1000	-1	0
183	6	2	?	P	f	862.68	NA	3	24	9	56	c	n	1137.31	1	1000	1000	0	0
183	6	3	?	N	d	932.67	NA	2	56	9	24	i	n	1006.01	1	100	1000	0	0
183	6	4	?	N	d	495.67	NA	4	24	7	56	c	n	507.88	1	100	1000	0	0
183	6	5	?	P	f	306.36	NA	3	56	8	24	i	j	378.23	1	1000	1000	0	0
183	6	6	?	N	d	198.69	NA	8	24	2	56	i	j	962.4	1	100	100	0	0
183	6	7	?	P	f	321.21	NA	9	24	4	56	i	n	1197.74	1	1000	1000	0	0
183	6	8	?	N	d	402.05	NA	8	56	3	24	c	j	532.19	1	1000	100	0	0
183	6	9	?	N	d	235.0	NA	4	24	7	56	c	n	453.29	1	1000	1000	0	0
183	6	10	?	P	f	425.57	NA	9	56	3	24	c	j	550.81	1	100	100	0	0
183	6	11	?	P	f	304.09	NA	9	56	4	24	c	j	377.02	1	1000	100	0	0
183	6	12	?	P	f	545.27	NA	7	24	2	56	i	n	1013.73	1	1000	1000	0	0
183	6	13	?	N	d	312.63	NA	9	24	4	56	i	n	789.48	0	100	1000	0	0
183	6	14	?	N	d	439.97	NA	2	24	8	56	c	n	423.75	1	100	1000	0	1
183	6	15	?	N	d	474.98	NA	4	24	8	56	c	n	516.17	1	100	100	0	0
183	6	16	?	N	d	-631.78	NA	2	56	9	24	i	n	665.18	1	1000	100	0	0
183	6	17	?	P	f	537.7	NA	7	56	4	24	c	j	500.2	1	1000	1000	0	0
183	6	18	?	P	f	326.28	NA	3	56	9	24	i	j	742.35	1	1000	100	0	0
183	6	19	?	N	d	397.84	NA	8	24	4	56	i	n	488.21	0	1000	100	0	0
183	6	20	?	N	d	529.11	NA	7	56	2	24	c	j	586.96	1	100	1000	0	1
183	6	21	?	N	d	348.2	NA	7	56	4	24	c	j	510.81	1	100	100	0	0
183	6	22	?	P	f	500.29	NA	8	24	2	56	i	n	884.08	1	1000	1000	0	0
183	6	23	?	P	f	361.1	NA	7	24	4	56	i	n	484.91	1	100	100	0	0
183	6	24	?	P	f	503.41	NA	8	56	2	24	c	j	487.98	1	1000	100	0	0
183	6	25	?	N	d	719.31	NA	3	24	8	56	c	n	453.4	1	1000	100	0	0
183	6	26	?	N	d	438.24	NA	8	24	4	56	i	j	647.83	1	100	100	0	0
183	6	27	?	N	d	301.19	NA	2	24	8	56	c	n	430.43	1	1000	100	0	0
183	6	28	?	N	d	425.76	NA	7	24	4	56	i	j	594.29	1	100	1000	0	0
183	6	29	?	P	f	433.72	NA	9	56	3	24	c	j	541.32	1	100	1000	0	0
183	6	30	?	P	f	465.18	NA	8	56	2	24	c	j	691.46	1	100	100	0	0
183	6	31	?	P	f	442.49	NA	4	56	8	24	i	j	561.16	1	100	100	0	0
183	6	32	?	N	d	333.0	NA	7	24	2	56	i	n	670.18	0	100	1000	0	0
183	6	33	?	N	d	335.2	NA	3	24	9	56	c	n	553.19	1	1000	1000	0	1
183	6	34	?	N	d	517.07	NA	4	24	7	56	c	n	726.49	1	100	100	0	0
183	6	35	?	P	f	770.67	NA	9	24	3	56	i	n	779.95	1	100	1000	0	0
183	6	36	?	P	f	615.12	NA	4	56	9	24	i	j	849.05	1	1000	100	0	0
183	6	37	?	P	f	393.85	NA	9	24	3	56	i	n	573.08	1	100	1000	0	0
183	6	38	?	N	d	485.89	NA	4	56	9	24	i	n	903.86	1	100	100	0	0
183	6	39	?	N	d	414.62	NA	2	24	9	56	c	n	588.49	1	1000	1000	0	0
183	6	40	?	P	f	799.9	NA	8	56	4	24	c	j	522.84	1	100	1000	0	0
183	6	41	?	N	d	90.36	NA	3	24	7	56	c	n	762.95	1	1000	100	0	0
183	6	42	?	N	d	424.26	NA	4	56	7	24	i	n	965.01	1	1000	100	0	0
183	6	43	?	P	f	290.06	NA	8	56	3	24	c	j	458.74	1	1000	100	0	0
183	6	44	?	N	d	374.51	NA	7	24	2	56	i	j	1156.1	1	1000	1000	0	0
183	6	45	?	P	f	349.55	NA	3	24	9	56	c	n	579.96	1	100	100	0	0
183	6	46	?	N	d	481.54	NA	2	56	7	24	i	n	881.91	1	100	1000	0	0
183	6	47	?	P	f	324.12	NA	9	24	4	56	i	n	785.47	1	1000	100	0	0
183	6	48	?	P	f	266.88	NA	3	24	8	56	c	n	474.24	1	100	1000	0	0
183	6	49	?	N	d	362.85	NA	2	24	8	56	c	n	621.54	1	100	100	0	0
183	6	50	?	N	d	484.2	NA	3	24	8	56	c	n	406.94	1	100	1000	0	0
183	6	51	?	P	f	182.41	NA	8	56	4	24	c	j	625.21	1	100	100	0	0
183	6	52	?	P	f	317.69	NA	8	56	3	24	c	j	699.93	1	1000	1000	0	0
183	6	53	?	N	d	258.08	NA	7	24	4	56	i	j	921.19	1	1000	100	0	0
183	6	54	?	P	f	301.82	NA	9	24	2	56	i	n	1184.72	1	1000	100	0	0
183	6	55	?	N	d	270.45	NA	7	24	3	56	i	j	860.32	1	1000	1000	0	0
183	6	56	?	P	f	-165.79	NA	8	56	2	24	c	j	466.5	1	1000	1000	0	0
183	6	57	?	P	f	405.32	NA	4	56	9	24	i	j	1424.44	1	100	1000	0	0
183	6	58	?	N	d	495.34	NA	3	24	8	56	c	n	745.4	1	1000	100	0	0
183	6	59	?	N	d	534.8	NA	7	56	4	24	c	j	1329.06	1	1000	1000	0	0
183	6	60	?	P	f	321.47	NA	3	56	7	24	i	j	883.07	1	1000	1000	0	0
183	6	61	?	P	f	540.62	NA	4	56	8	24	i	j	694.49	1	100	100	0	0
183	6	62	?	N	d	353.85	NA	2	56	9	24	i	n	792.23	1	1000	1000	0	0
183	6	63	?	N	d	667.65	NA	4	56	9	24	i	n	711.7	1	100	100	0	0
183	6	64	?	P	f	501.66	NA	9	56	3	24	c	j	868.2	1	100	1000	0	0
183	6	65	?	P	f	424.5	NA	9	24	2	56	i	n	583.28	1	100	100	0	0
