subj	block	trial	task_cue	task	choice_resp	choiceRT	choice_acc	topnum	topsize	botnum	botsize	cong	task_resp	taskRT	task_acc	RSI	CSI	altRep	E1
184	1	1	P	P	d	1076.14	1	8	56	4	24	c	j	543.56	1	1000	1000	-1	0
184	1	2	N	N	f	915.92	0	8	24	2	56	i	j	741.51	1	1000	1000	1	0
184	1	3	N	N	f	1398.05	0	7	56	4	24	c	j	998.79	1	100	1000	0	0
184	1	4	P	P	d	965.31	1	3	24	7	56	c	n	954.34	1	1000	1000	1	0
184	1	5	N	N	f	886.8	0	7	24	4	56	i	j	741.47	1	1000	100	1	0
184	1	6	P	P	d	677.89	1	3	24	7	56	c	n	682.38	1	1000	100	1	0
184	1	7	P	P	d	911.07	1	7	56	4	24	c	j	634.85	1	100	1000	0	0
184	1	8	P	P	d	895.8	1	2	24	7	56	c	n	423.51	1	1000	1000	0	0
184	1	9	P	P	d	867.86	1	8	24	3	56	i	n	963.94	1	100	1000	0	0
184	1	10	P	P	d	796.46	1	7	24	4	56	i	n	1144.83	1	100	100	0	0
184	1	11	P	P	d	679.38	1	7	56	2	24	c	j	740.17	1	1000	100	0	0
184	1	12	P	P	d	833.99	1	3	24	7	56	c	n	450.69	1	100	1000	0	0
184	1	13	N	N	f	832.81	0	9	56	4	24	c	j	596.02	1	1000	1000	1	0
184	1	14	N	N	f	828.17	0	8	56	3	24	c	j	625.73	1	1000	100	0	0
184	1	15	P	P	d	1095.56	1	2	56	9	24	i	j	997.38	1	100	100	1	0
184	1	16	N	N	f	773.5	0	7	24	4	56	i	j	1137.11	1	100	1000	1	0
184	1	17	N	N	f	639.06	0	3	56	8	24	i	n	653.73	1	1000	100	0	0
184	1	18	N	N	f	954.39	0	7	56	2	24	c	j	808.83	1	1000	1000	0	0
184	1	19	P	P	d	893.11	1	4	56	7	24	i	j	2635.92	1	100	1000	1	0
184	1	20	P	P	d	810.11	1	3	56	9	24	i	j	894.06	1	1000	100	0	0
184	1	21	N	N	f	713.74	0	8	56	4	24	c	j	796.57	1	1000	100	1	0
184	1	22	N	N	f	525.05	0	8	24	3	56	i	j	1297.03	1	1000	1000	0	0
184	1	23	N	N	f	727.25	0	9	24	2	56	i	j	894.43	1	1000	100	0	0
184	1	24	N	N	f	714.96	0	3	56	7	24	i	n	1055.55	1	100	1000	0	0
184	1	25	N	N	f	1091.19	0	4	24	8	56	c	n	723.1	1	1000	100	0	0
184	1	26	N	N	f	773.13	0	8	24	3	56	i	j	980.63	1	100	100	0	0
184	1	27	N	N	f	683.97	0	7	56	4	24	c	j	833.8	1	100	100	0	0
184	1	28	P	P	d	754.89	1	7	24	3	56	i	n	540.54	1	100	100	1	0
184	1	29	P	P	d	508.82	1	2	56	7	24	i	j	1240.71	1	100	1000	0	0
184	1	30	P	P	d	687.34	1	7	24	3	56	i	n	944.09	1	1000	100	0	0
184	1	31	P	P	d	1242.42	1	4	56	7	24	i	j	487.63	1	1000	1000	0	0
184	1	32	N	N	f	1348.09	0	3	56	9	24	i	n	797.43	1	1000	100	1	0
184	1	33	N	N	f	537.82	0	2	24	9	56	c	n	573.71	1	100	100	0	0
184	1	34	P	P	d	789.58	1	3	56	8	24	i	j	720.19	1	1000	1000	1	0
184	1	35	N	N	f	1033.79	0	7	56	4	24	c	j	956.36	1	100	1000	1	0
184	1	36	N	N	f	923.79	0	2	24	9	56	c	n	1160.13	1	100	1000	0	0
184	1	37	N	N	f	1378.38	0	7	24	4	56	i	j	939.08	1	100	1000	0	0
184	1	38	P	P	d	866.58	1	9	56	3	24	c	j	483.16	1	100	1000	1	0
184	1	39	P	P	d	777.9	1	2	56	9	24	i	j	1693.38	1	100	100	0	0
184	1	40	P	P	d	622.22	1	9	24	4	56	i	n	2486.55	1	1000	1000	0	0
184	1	41	N	N	f	1014.16	0	8	56	2	24	c	j	583.55	1	100	100	1	0
184	1	42	P	P	f	641.97	1	4	24	9	56	c	n	1532.93	1	100	1000	1	0
184	1	43	P	P	d	2598.5	1	9	56	2	24	c	j	1415.04	1	100	100	0	0
184	1	44	N	N	f	897.65	0	3	24	9	56	c	n	2011.19	1	100	1000	1	0
184	1	45	P	P	d	892.52	1	9	24	2	56	i	n	1489.99	1	1000	100	1	0
184	1	46	N	N	f	1001.24	0	3	24	7	56	c	n	1767.21	1	1000	1000	1	0
184	1	47	P	P	d	663.96	1	8	24	4	56	i	n	1189.63	1	100	1000	1	0
184	1	48	N	N	f	753.13	0	3	56	9	24	i	n	1944.47	1	1000	1000	1	0
184	1	49	P	P	d	2096.68	1	7	56	2	24	c	j	1108.76	1	1000	1000	1	0
184	1	50	P	P	d	1768.41	1	9	56	4	24	c	j	1047.21	1	1000	1000	0	0
184	1	51	N	N	f	750.27	0	2	24	9	56	c	n	551.54	1	1000	100	1	0
184	1	52	P	P	d	796.38	1	3	24	8	56	c	n	930.78	1	100	100	1	0
184	1	53	N	N	f	593.76	0	9	24	4	56	i	j	749.22	1	100	100	1	0
184	1	54	N	N	f	753.26	0	2	56	8	24	i	n	854.07	1	100	100	0	0
184	1	55	N	N	f	728.95	0	3	24	9	56	c	n	535.47	1	1000	1000	0	0
184	1	56	P	P	d	796.75	1	7	56	2	24	c	j	1009.68	1	100	100	1	0
184	1	57	N	N	f	1197.54	0	4	56	8	24	i	n	1032.36	1	100	100	1	0
184	1	58	P	P	d	775.12	1	7	24	3	56	i	j	1746.93	0	1000	1000	1	0
184	1	59	N	N	f	5148.83	0	4	24	9	56	c	n	1018.17	1	100	100	1	1
184	1	60	P	P	d	602.76	1	9	56	3	24	c	j	583.1	1	1000	100	1	0
184	1	61	P	P	d	799.7	1	4	24	7	56	c	n	607.88	1	100	100	0	0
184	1	62	N	N	f	734.05	0	3	56	9	24	i	n	1008.13	1	100	1000	1	0
184	1	63	N	N	f	598.12	0	2	56	7	24	i	n	1449.48	1	1000	1000	0	0
184	1	64	P	P	d	707.33	1	3	56	8	24	i	j	2984.44	1	1000	100	1	0
184	1	65	P	P	d	808.19	1	2	24	9	56	c	n	475.42	1	1000	100	0	0
184	2	1	N	N	f	1530.33	0	2	56	7	24	i	n	997.65	1	100	100	-1	0
184	2	2	N	N	f	605.69	0	7	56	3	24	c	j	1013.92	1	100	100	0	0
184	2	3	P	P	d	672.53	1	8	56	4	24	c	j	529.4	1	100	1000	1	0
184	2	4	P	P	d	670.88	1	3	56	9	24	i	j	1224.8	1	1000	1000	0	0
184	2	5	N	N	f	655.02	0	4	24	7	56	c	n	743.62	1	100	100	1	0
184	2	6	N	N	f	747.65	0	3	24	8	56	c	n	572.5	1	100	100	0	0
184	2	7	N	N	f	1147.88	0	4	56	7	24	i	n	1156.52	1	1000	100	0	0
184	2	8	N	N	f	495.15	0	2	56	9	24	i	n	580.51	1	1000	1000	0	0
184	2	9	P	P	d	998.58	1	8	24	3	56	i	n	1707.6	1	1000	1000	1	0
184	2	10	N	N	f	958.96	0	7	56	2	24	c	j	914.05	1	100	1000	1	0
184	2	11	N	N	f	672.93	0	8	56	4	24	c	j	833.25	1	100	1000	0	0
184	2	12	P	P	d	3171.67	1	9	56	3	24	c	j	559.63	1	1000	1000	1	0
184	2	13	N	N	f	926.82	0	9	24	4	56	i	j	960.32	1	1000	1000	1	0
184	2	14	P	P	d	770.23	1	2	24	9	56	c	n	717.78	1	100	100	1	0
184	2	15	N	N	f	1121.38	0	3	24	7	56	c	n	1022.41	1	1000	1000	1	0
184	2	16	P	P	d	438.32	1	2	24	9	56	c	n	507.6	1	1000	100	1	0
184	2	17	P	P	d	722.8	1	7	56	3	24	c	j	394.41	1	100	1000	0	0
184	2	18	P	P	d	433.04	1	4	24	8	56	c	n	449.99	1	1000	1000	0	0
184	2	19	P	P	d	483.76	1	3	24	8	56	c	n	863.43	1	100	100	0	0
184	2	20	N	N	f	1267.28	0	4	24	8	56	c	n	1126.33	1	1000	100	1	0
184	2	21	P	P	d	757.53	1	2	56	8	24	i	j	1565.72	1	100	1000	1	0
184	2	22	P	P	d	550.27	1	3	56	9	24	i	j	1080.84	1	100	100	0	0
184	2	23	P	P	d	615.45	1	4	24	8	56	c	n	618.56	1	1000	100	0	0
184	2	24	P	P	d	514.93	1	3	24	7	56	c	n	494.21	1	100	1000	0	0
184	2	25	N	N	f	647.2	0	2	24	7	56	c	n	705.84	1	100	1000	1	0
184	2	26	N	N	f	1057.2	0	4	24	9	56	c	n	946.65	1	1000	1000	0	0
184	2	27	P	P	d	1819.05	1	8	24	3	56	i	n	980.34	1	1000	100	1	0
184	2	28	P	P	d	514.13	1	9	24	4	56	i	n	784.84	1	1000	1000	0	0
184	2	29	N	N	f	630.89	0	7	56	3	24	c	j	696.53	1	1000	100	1	0
184	2	30	N	N	f	457.56	0	7	24	4	56	i	j	1690.21	1	100	1000	0	0
184	2	31	N	N	f	721.21	0	3	56	9	24	i	n	763.68	1	100	1000	0	0
184	2	32	P	P	d	750.83	1	4	56	9	24	i	j	1001.64	1	1000	1000	1	0
184	2	33	N	N	f	1992.45	0	2	56	8	24	i	n	824.81	1	1000	100	1	0
184	2	34	N	N	f	721.23	0	8	56	4	24	c	j	1012.2	1	1000	1000	0	0
184	2	35	N	N	f	680.9	0	9	24	2	56	i	j	572.32	1	1000	100	0	0
184	2	36	P	P	f	485.12	1	8	24	4	56	i	n	840.03	1	100	1000	1	0
184	2	37	P	P	d	575.13	1	2	56	7	24	i	j	734.27	1	100	1000	0	0
184	2	38	P	P	d	435.79	1	8	24	3	56	i	n	1145.14	1	100	100	0	0
184	2	39	N	N	f	625.39	0	8	24	4	56	i	j	1083.35	1	100	1000	1	0
184	2	40	N	N	f	562.13	0	9	56	2	24	c	j	1053.5	1	1000	100	0	0
184	2	41	P	P	d	650.27	1	4	24	8	56	c	n	574.5	1	100	1000	1	0
184	2	42	P	P	d	474.91	1	8	56	3	24	c	j	2973.38	1	1000	1000	0	0
184	2	43	P	P	d	606.92	1	9	24	4	56	i	n	811.29	1	100	1000	0	0
184	2	44	N	N	f	692.45	0	8	24	2	56	i	j	904.32	1	100	100	1	0
184	2	45	N	N	f	573.7	0	3	56	7	24	i	n	868.16	1	100	100	0	0
184	2	46	P	P	d	761.31	1	4	24	7	56	c	n	477.7	1	1000	1000	1	0
184	2	47	P	P	d	568.37	1	2	56	9	24	i	j	1065.3	1	1000	100	0	0
184	2	48	N	N	f	685.62	0	3	56	8	24	i	n	1268.26	1	100	1000	1	0
184	2	49	N	N	f	990.48	0	7	24	2	56	i	j	1385.01	1	1000	1000	0	0
184	2	50	P	P	d	428.9	1	3	56	7	24	i	j	1290.58	1	1000	100	1	0
184	2	51	P	P	d	1136.72	1	8	24	4	56	i	n	1090.03	1	1000	100	0	0
184	2	52	N	N	f	652.81	0	9	56	2	24	c	j	966.44	1	100	100	1	0
184	2	53	N	N	f	584.58	0	3	24	8	56	c	n	597.41	1	1000	100	0	0
184	2	54	N	N	f	438.09	0	8	24	4	56	i	j	921.55	1	100	100	0	0
184	2	55	P	P	d	607.15	1	7	56	3	24	c	j	948.09	1	1000	100	1	0
184	2	56	N	N	f	696.0	0	2	56	9	24	i	n	807.0	1	100	100	1	0
184	2	57	N	N	f	755.72	0	4	24	8	56	c	n	1439.86	1	100	1000	0	0
184	2	58	P	P	d	574.38	1	9	24	2	56	i	j	633.43	0	100	100	1	0
184	2	59	P	P	d	1024.26	1	9	56	3	24	c	j	1093.9	1	1000	100	0	1
184	2	60	P	P	d	1411.39	1	8	56	4	24	c	j	725.43	1	100	100	0	0
184	2	61	N	N	f	1409.6	0	9	24	3	56	i	j	803.45	1	1000	100	1	0
184	2	62	P	P	d	640.35	1	8	56	4	24	c	j	1070.84	1	100	100	1	0
184	2	63	N	N	f	1224.45	0	8	56	3	24	c	j	1362.64	1	1000	1000	1	0
184	2	64	P	P	d	569.43	1	2	56	7	24	i	j	1101.42	1	100	100	1	0
184	2	65	N	N	f	753.85	0	3	56	7	24	i	n	1258.66	1	1000	1000	1	0
184	3	1	N	N	f	1219.85	0	7	56	4	24	c	j	751.91	1	100	100	-1	0
184	3	2	P	P	d	940.43	1	9	24	2	56	i	n	800.89	1	1000	100	1	0
184	3	3	N	N	f	547.49	0	7	56	4	24	c	j	481.47	1	100	1000	1	0
184	3	4	P	P	d	965.32	1	8	56	2	24	c	j	775.75	1	1000	100	1	0
184	3	5	P	P	d	678.6	1	8	56	4	24	c	j	479.39	1	1000	100	0	0
184	3	6	P	P	d	537.62	1	3	24	8	56	c	n	753.52	1	100	100	0	0
184	3	7	P	P	d	560.87	1	8	24	2	56	i	n	928.13	1	100	1000	0	0
184	3	8	P	P	d	568.24	1	8	56	3	24	c	j	524.75	1	1000	1000	0	0
184	3	9	P	P	d	463.56	1	2	24	7	56	c	n	616.37	1	1000	100	0	0
184	3	10	N	N	f	1564.46	0	9	24	3	56	i	j	592.5	1	1000	1000	1	0
184	3	11	N	N	f	408.69	0	2	24	9	56	c	n	600.6	1	1000	100	0	0
184	3	12	P	P	d	709.99	1	8	56	4	24	c	j	995.12	1	100	1000	1	0
184	3	13	N	N	f	714.33	0	9	56	3	24	c	j	696.67	1	100	100	1	0
184	3	14	P	P	d	446.56	1	2	56	8	24	i	j	988.05	1	1000	100	1	0
184	3	15	P	P	d	549.59	1	8	24	4	56	i	n	833.35	1	1000	100	0	0
184	3	16	P	P	d	630.4	1	8	56	3	24	c	j	558.65	1	100	1000	0	0
184	3	17	N	N	f	1152.38	0	2	56	7	24	i	n	1346.27	1	100	1000	1	0
184	3	18	P	P	f	535.88	1	8	56	4	24	c	j	1697.8	1	100	100	1	0
184	3	19	N	N	f	636.86	0	2	24	9	56	c	n	1078.7	1	1000	1000	1	0
184	3	20	N	N	f	693.15	0	4	24	9	56	c	n	545.22	1	100	100	0	0
184	3	21	P	P	d	772.2	1	7	24	3	56	i	n	1248.39	1	100	1000	1	0
184	3	22	N	N	f	818.69	0	7	24	4	56	i	j	1111.08	1	1000	100	1	0
184	3	23	P	P	d	668.38	1	7	24	2	56	i	n	705.63	1	1000	1000	1	0
184	3	24	P	P	d	1316.97	1	3	24	7	56	c	n	584.72	1	100	1000	0	0
184	3	25	N	N	f	1149.67	0	7	24	4	56	i	j	1372.16	1	100	100	1	0
184	3	26	N	N	f	968.03	0	2	56	9	24	i	n	720.63	1	100	1000	0	0
184	3	27	N	N	f	717.83	0	7	56	3	24	c	j	851.95	1	1000	100	0	0
184	3	28	P	P	d	547.45	1	4	24	7	56	c	n	593.25	1	1000	1000	1	0
184	3	29	P	P	d	465.32	1	3	24	7	56	c	n	595.8	1	1000	1000	0	0
184	3	30	P	P	d	558.38	1	7	24	2	56	i	n	936.12	1	1000	1000	0	0
184	3	31	N	N	f	1134.7	0	7	24	4	56	i	n	1001.4	0	100	1000	1	0
184	3	32	N	N	f	2172.99	0	8	24	2	56	i	j	853.59	1	100	1000	0	1
184	3	33	N	N	f	741.2	0	9	56	3	24	c	j	1712.56	1	1000	1000	0	0
184	3	34	P	P	d	669.01	1	9	56	2	24	c	j	1212.13	1	1000	1000	1	0
184	3	35	P	P	d	614.41	1	9	56	3	24	c	j	628.75	1	100	100	0	0
184	3	36	P	P	d	479.75	1	4	56	9	24	i	j	1201.43	1	100	100	0	0
184	3	37	P	P	d	584.9	1	3	56	8	24	i	j	851.23	1	1000	1000	0	0
184	3	38	N	N	f	935.83	0	4	56	9	24	i	n	706.52	1	100	100	1	0
184	3	39	P	P	d	1149.12	1	8	24	2	56	i	n	505.58	1	100	100	1	0
184	3	40	N	N	f	731.28	0	9	56	4	24	c	j	1134.42	1	1000	100	1	0
184	3	41	N	N	f	670.78	0	3	56	9	24	i	n	965.86	1	1000	1000	0	0
184	3	42	N	N	f	617.59	0	4	24	9	56	c	n	517.95	1	1000	1000	0	0
184	3	43	N	N	f	740.01	0	2	24	7	56	c	n	663.98	1	100	1000	0	0
184	3	44	P	P	d	863.64	1	3	24	8	56	c	n	638.87	1	1000	100	1	0
184	3	45	N	N	f	731.79	0	4	24	7	56	c	n	663.96	1	100	100	1	0
184	3	46	N	N	f	537.36	0	9	56	2	24	c	j	920.9	1	100	1000	0	0
184	3	47	P	P	d	865.92	1	3	24	9	56	c	n	1157.49	1	100	1000	1	0
184	3	48	P	P	d	531.14	1	9	24	2	56	i	n	966.17	1	100	100	0	0
184	3	49	P	P	d	540.44	1	3	56	8	24	i	j	901.12	1	100	1000	0	0
184	3	50	N	N	f	974.19	0	2	56	7	24	i	n	1296.05	1	1000	1000	1	0
184	3	51	N	N	f	1029.86	0	9	24	3	56	i	j	760.74	1	1000	1000	0	0
184	3	52	N	N	f	511.61	0	8	24	4	56	i	j	985.53	1	1000	100	0	0
184	3	53	P	P	d	953.22	1	3	56	7	24	i	j	1392.65	1	100	1000	1	0
184	3	54	P	P	d	1735.41	1	2	56	7	24	i	j	665.85	1	1000	100	0	0
184	3	55	N	N	f	673.34	0	3	24	8	56	c	n	1184.14	1	1000	100	1	0
184	3	56	N	N	f	821.8	0	9	24	4	56	i	j	653.37	1	100	100	0	0
184	3	57	P	P	f	717.45	1	3	56	8	24	i	n	750.6	0	100	100	1	0
184	3	58	N	N	f	1035.42	0	8	56	4	24	c	j	1379.97	1	1000	1000	1	1
184	3	59	N	N	f	726.99	0	3	56	8	24	i	n	1344.34	1	1000	100	0	0
184	3	60	N	N	f	500.97	0	7	56	2	24	c	j	721.07	1	100	100	0	0
184	3	61	P	P	d	674.92	1	4	24	8	56	c	n	1083.87	1	100	100	1	0
184	3	62	N	N	f	630.32	0	3	56	7	24	i	n	2528.75	1	1000	100	1	0
184	3	63	P	P	d	1422.44	1	4	56	8	24	i	j	1427.57	1	1000	1000	1	0
184	3	64	N	N	f	804.28	0	3	24	7	56	c	n	1809.38	1	100	1000	1	0
184	3	65	N	N	f	1984.42	0	4	56	8	24	i	n	686.44	1	100	100	0	0
184	4	1	N	N	f	1057.97	0	4	56	9	24	i	n	744.49	1	1000	1000	-1	0
184	4	2	N	N	f	479.14	0	3	56	7	24	i	n	998.05	1	100	100	0	0
184	4	3	N	N	f	559.96	0	9	24	4	56	i	j	938.29	1	1000	1000	0	0
184	4	4	P	P	d	753.76	1	2	24	7	56	c	n	494.57	1	100	100	1	0
184	4	5	N	N	f	500.57	0	7	24	4	56	i	j	765.42	1	1000	1000	1	0
184	4	6	N	N	f	1067.97	0	7	24	3	56	i	j	1340.53	1	100	1000	0	0
184	4	7	N	N	f	507.69	0	7	56	2	24	c	j	858.13	1	100	100	0	0
184	4	8	P	P	d	588.38	1	3	56	7	24	i	j	741.79	1	100	1000	1	0
184	4	9	P	P	d	554.38	1	2	24	7	56	c	n	876.91	1	1000	100	0	0
184	4	10	P	P	d	578.56	1	7	56	4	24	c	j	693.48	1	1000	100	0	0
184	4	11	P	P	d	557.02	1	3	56	7	24	i	j	609.71	1	100	100	0	0
184	4	12	N	N	f	635.18	0	7	56	2	24	c	j	717.27	1	100	100	1	0
184	4	13	P	P	d	630.68	1	8	56	3	24	c	j	525.33	1	1000	1000	1	0
184	4	14	P	P	d	656.23	1	4	56	7	24	i	j	709.26	1	1000	1000	0	0
184	4	15	P	P	d	803.84	1	8	56	2	24	c	j	583.78	1	100	100	0	0
184	4	16	P	P	d	450.59	1	7	56	3	24	c	j	569.13	1	100	1000	0	0
184	4	17	N	N	f	773.41	0	2	24	8	56	c	n	958.5	1	1000	100	1	0
184	4	18	P	P	d	610.98	1	9	56	4	24	c	j	478.57	1	100	100	1	0
184	4	19	N	N	f	446.86	0	3	24	9	56	c	n	503.75	1	100	100	1	0
184	4	20	N	N	f	820.19	0	2	56	7	24	i	n	807.75	1	1000	1000	0	0
184	4	21	P	P	d	980.32	1	3	24	7	56	c	n	942.57	1	1000	100	1	0
184	4	22	P	P	d	656.07	1	7	24	2	56	i	n	1058.96	1	1000	100	0	0
184	4	23	N	N	f	599.4	0	7	24	3	56	i	j	540.7	1	100	100	1	0
184	4	24	P	P	d	576.56	1	7	24	2	56	i	n	477.78	1	100	100	1	0
184	4	25	P	P	d	580.21	1	7	24	4	56	i	n	559.98	1	100	1000	0	0
184	4	26	P	P	d	578.56	1	3	56	8	24	i	j	423.72	1	100	1000	0	0
184	4	27	P	P	d	518.91	1	2	56	9	24	i	j	717.26	1	1000	100	0	0
184	4	28	N	N	f	631.08	0	4	24	8	56	c	n	807.56	1	100	1000	1	0
184	4	29	P	P	d	542.33	1	3	56	9	24	i	j	724.86	1	1000	100	1	0
184	4	30	N	N	f	711.15	0	2	24	7	56	c	n	905.21	1	1000	1000	1	0
184	4	31	N	N	f	597.02	0	4	56	8	24	i	n	851.87	1	100	1000	0	0
184	4	32	N	N	f	468.44	0	2	24	8	56	c	n	727.59	1	1000	1000	0	0
184	4	33	P	P	d	1355.15	1	9	24	3	56	i	n	988.88	1	1000	1000	1	0
184	4	34	P	P	d	788.45	1	4	24	8	56	c	n	573.55	1	100	100	0	0
184	4	35	N	N	f	1418.49	0	8	56	2	24	c	j	818.76	1	1000	100	1	0
184	4	36	P	P	d	479.8	1	3	24	9	56	c	n	502.81	1	1000	1000	1	0
184	4	37	P	P	f	1719.47	1	4	24	9	56	c	n	806.09	1	100	1000	0	0
184	4	38	N	N	f	1001.74	0	9	24	3	56	i	j	981.5	1	1000	100	1	0
184	4	39	P	P	d	481.11	1	4	56	7	24	i	j	886.39	1	1000	1000	1	0
184	4	40	P	P	d	2720.71	1	8	24	2	56	i	n	705.15	1	100	100	0	0
184	4	41	N	N	f	685.95	0	3	56	9	24	i	n	628.19	1	1000	100	1	0
184	4	42	N	N	f	748.45	0	8	24	2	56	i	j	583.61	1	1000	100	0	0
184	4	43	P	P	d	743.37	1	9	24	3	56	i	n	1309.95	1	1000	100	1	0
184	4	44	N	N	f	680.02	0	8	56	2	24	c	j	986.3	1	100	1000	1	0
184	4	45	N	N	f	537.36	0	8	56	4	24	c	j	527.31	1	1000	1000	0	0
184	4	46	N	N	f	365.01	0	2	24	7	56	c	n	505.67	1	1000	100	0	0
184	4	47	P	P	d	755.0	1	7	56	4	24	c	j	584.97	1	100	1000	1	0
184	4	48	N	N	f	698.2	0	9	56	2	24	c	j	775.38	1	1000	1000	1	0
184	4	49	P	P	d	723.59	1	4	56	7	24	i	j	1104.19	1	100	100	1	0
184	4	50	P	P	d	651.12	1	7	56	3	24	c	j	551.7	1	1000	1000	0	0
184	4	51	P	P	d	1785.51	1	9	24	2	56	i	n	1012.5	1	1000	1000	0	0
184	4	52	N	N	f	807.12	0	4	56	9	24	i	n	1318.73	1	100	100	1	0
184	4	53	N	N	f	1070.68	0	8	24	3	56	i	j	932.62	1	100	100	0	0
184	4	54	N	N	f	472.4	0	4	24	8	56	c	n	597.95	1	100	100	0	0
184	4	55	N	N	f	537.09	0	9	56	2	24	c	j	1327.67	1	1000	100	0	0
184	4	56	N	N	f	656.85	0	3	24	8	56	c	n	1138.13	1	100	1000	0	0
184	4	57	N	N	f	584.91	0	7	56	2	24	c	j	626.36	1	100	1000	0	0
184	4	58	P	P	f	442.99	1	8	24	4	56	i	n	679.3	1	100	1000	1	0
184	4	59	N	N	f	795.1	0	3	56	8	24	i	n	974.01	1	1000	1000	1	0
184	4	60	P	P	d	586.71	1	4	24	7	56	c	n	583.41	1	100	1000	1	0
184	4	61	P	P	d	606.99	1	3	24	8	56	c	n	710.56	1	1000	1000	0	0
184	4	62	N	N	f	973.6	0	9	24	4	56	i	j	1541.78	1	100	1000	1	0
184	4	63	P	P	d	913.35	1	8	56	3	24	c	j	874.3	1	1000	100	1	0
184	4	64	N	N	f	554.39	0	2	56	7	24	i	n	989.27	1	100	1000	1	0
184	4	65	N	N	f	561.62	0	3	56	8	24	i	n	672.0	1	1000	100	0	0
184	5	1	P	P	d	871.11	1	2	56	7	24	i	j	708.93	1	1000	100	-1	0
184	5	2	P	P	d	464.26	1	7	24	3	56	i	n	921.02	1	1000	100	0	0
184	5	3	N	N	f	651.04	0	8	56	4	24	c	j	654.83	1	1000	100	1	0
184	5	4	N	N	f	1034.19	0	8	24	3	56	i	j	573.67	1	1000	1000	0	0
184	5	5	P	P	d	473.94	1	8	24	2	56	i	n	756.78	1	1000	100	1	0
184	5	6	P	P	d	428.98	1	4	24	9	56	c	n	468.68	1	1000	100	0	0
184	5	7	P	P	d	447.88	1	8	24	2	56	i	n	425.48	1	100	1000	0	0
184	5	8	P	P	d	487.93	1	4	24	7	56	c	n	427.1	1	100	1000	0	0
184	5	9	P	P	d	489.02	1	3	56	7	24	i	j	541.11	1	1000	100	0	0
184	5	10	P	P	d	576.77	1	4	24	8	56	c	n	533.72	1	100	100	0	0
184	5	11	P	P	d	901.28	1	9	56	3	24	c	j	744.71	1	1000	100	0	0
184	5	12	N	N	f	647.63	0	8	56	4	24	c	j	594.56	1	100	100	1	0
184	5	13	N	N	f	434.48	0	3	56	8	24	i	n	536.09	1	100	100	0	0
184	5	14	P	P	d	638.81	1	7	24	4	56	i	n	652.16	1	1000	1000	1	0
184	5	15	P	P	d	549.4	1	8	24	3	56	i	n	878.38	1	100	100	0	0
184	5	16	N	N	f	805.06	0	9	24	4	56	i	j	1484.18	1	100	1000	1	0
184	5	17	N	N	f	799.87	0	3	24	9	56	c	n	945.64	1	100	100	0	0
184	5	18	P	P	d	715.2	1	4	56	8	24	i	j	549.78	1	1000	100	1	0
184	5	19	N	N	f	653.77	0	2	56	8	24	i	n	537.62	1	100	1000	1	0
184	5	20	P	P	d	1124.46	1	7	56	4	24	c	j	485.98	1	1000	100	1	0
184	5	21	P	P	d	2067.29	1	3	24	9	56	c	n	1203.09	1	1000	1000	0	0
184	5	22	P	P	d	515.07	1	4	56	9	24	i	j	853.79	1	100	1000	0	0
184	5	23	P	P	d	560.74	1	3	56	7	24	i	j	918.48	1	100	100	0	0
184	5	24	P	P	d	508.37	1	9	56	4	24	c	j	824.64	1	100	1000	0	0
184	5	25	N	N	f	1351.67	0	2	56	7	24	i	n	1193.56	1	1000	1000	1	0
184	5	26	P	P	d	1309.44	1	8	24	4	56	i	n	1117.81	1	100	100	1	0
184	5	27	N	N	f	878.21	0	3	56	8	24	i	n	839.26	1	1000	100	1	0
184	5	28	P	P	d	1001.56	1	9	56	4	24	c	j	1053.94	1	100	1000	1	0
184	5	29	N	N	f	662.44	0	2	56	7	24	i	n	682.87	1	100	100	1	0
184	5	30	P	P	d	788.66	1	4	56	9	24	i	j	1192.11	1	100	100	1	0
184	5	31	N	N	f	588.95	0	9	56	3	24	c	j	562.98	1	100	1000	1	0
184	5	32	N	N	f	693.6	0	4	56	9	24	i	n	780.36	1	1000	1000	0	0
184	5	33	P	P	d	840.38	1	3	24	7	56	c	n	699.2	1	1000	1000	1	0
184	5	34	P	P	d	2451.51	1	2	56	9	24	i	j	561.65	1	1000	1000	0	0
184	5	35	N	N	f	502.54	0	8	24	3	56	i	j	638.93	1	100	100	1	0
184	5	36	P	P	d	675.79	1	2	24	8	56	c	n	588.61	1	100	1000	1	0
184	5	37	N	N	f	371.64	0	9	24	4	56	i	j	540.15	1	1000	100	1	0
184	5	38	N	N	f	756.41	0	7	56	3	24	c	j	811.94	1	100	100	0	0
184	5	39	N	N	f	501.15	0	2	24	9	56	c	n	732.72	1	1000	1000	0	0
184	5	40	N	N	f	482.11	0	3	56	9	24	i	n	686.61	1	1000	100	0	0
184	5	41	N	N	f	571.32	0	7	56	4	24	c	j	663.77	1	1000	100	0	0
184	5	42	N	N	f	570.49	0	7	56	2	24	c	j	841.69	1	1000	1000	0	0
184	5	43	P	P	d	768.07	1	4	56	9	24	i	j	941.33	1	1000	1000	1	0
184	5	44	N	N	f	2352.68	0	7	24	3	56	i	j	507.09	1	1000	1000	1	0
184	5	45	P	P	d	587.45	1	2	24	9	56	c	n	1226.0	1	100	100	1	0
184	5	46	N	N	f	1129.43	0	3	24	9	56	c	n	704.34	1	100	100	1	0
184	5	47	N	N	f	1990.32	0	2	24	9	56	c	n	507.5	1	1000	100	0	0
184	5	48	N	N	f	519.69	0	8	24	4	56	i	j	1010.22	1	1000	100	0	0
184	5	49	P	P	d	882.33	1	2	24	7	56	c	n	697.47	1	1000	100	1	0
184	5	50	N	N	f	639.31	0	4	24	7	56	c	n	1339.15	1	100	1000	1	0
184	5	51	P	P	d	1563.34	1	8	56	3	24	c	j	1177.15	1	1000	1000	1	0
184	5	52	P	P	d	746.46	1	9	56	4	24	c	j	974.77	1	1000	1000	0	0
184	5	53	P	P	d	678.39	1	9	56	2	24	c	j	906.79	1	100	100	0	0
184	5	54	N	N	f	1002.23	0	4	24	7	56	c	n	2234.77	1	1000	1000	1	0
184	5	55	N	N	f	585.37	0	3	56	9	24	i	n	570.75	1	100	1000	0	0
184	5	56	P	P	d	1001.05	1	4	56	8	24	i	j	573.67	1	100	1000	1	0
184	5	57	N	N	f	609.29	0	2	24	9	56	c	n	792.9	1	1000	100	1	0
184	5	58	P	P	d	657.02	1	9	24	3	56	i	n	1801.03	1	100	1000	1	0
184	5	59	P	P	d	494.57	1	7	24	4	56	i	n	568.61	1	1000	1000	0	0
184	5	60	N	N	f	817.59	0	9	56	2	24	c	j	799.56	1	1000	1000	1	0
184	5	61	N	N	f	427.33	0	9	24	4	56	i	j	850.02	1	100	100	0	0
184	5	62	N	N	f	416.57	0	8	24	3	56	i	j	641.8	1	100	1000	0	0
184	5	63	N	N	f	543.6	0	9	56	2	24	c	j	533.71	1	100	1000	0	0
184	5	64	N	N	f	496.58	0	3	24	9	56	c	n	457.47	1	100	1000	0	0
184	5	65	P	P	d	700.42	1	8	56	2	24	c	j	541.48	1	100	100	1	0
184	6	1	P	P	d	1296.8	1	9	56	3	24	c	j	958.74	1	100	100	-1	0
184	6	2	P	P	d	593.1	1	2	24	8	56	c	n	466.21	1	1000	1000	0	0
184	6	3	N	N	f	607.5	0	3	24	9	56	c	n	441.8	1	100	100	1	0
184	6	4	N	N	f	733.87	0	8	24	2	56	i	j	709.5	1	1000	1000	0	0
184	6	5	P	P	d	510.92	1	3	24	7	56	c	n	579.95	1	1000	100	1	0
184	6	6	P	P	d	390.85	1	2	24	8	56	c	n	453.43	1	100	100	0	0
184	6	7	N	N	f	583.73	0	4	56	9	24	i	n	843.47	1	100	1000	1	0
184	6	8	P	P	d	510.84	1	8	24	2	56	i	n	738.62	1	1000	100	1	0
184	6	9	N	N	f	538.85	0	4	56	8	24	i	n	552.19	1	1000	100	1	0
184	6	10	P	P	d	1155.19	1	2	56	8	24	i	j	528.38	1	1000	1000	1	0
184	6	11	P	P	d	574.54	1	3	24	8	56	c	n	543.58	1	1000	100	0	0
184	6	12	P	P	d	544.95	1	7	24	4	56	i	n	907.77	1	1000	100	0	0
184	6	13	P	P	d	462.97	1	7	24	3	56	i	n	715.6	1	1000	1000	0	0
184	6	14	N	N	f	651.65	0	4	24	7	56	c	n	559.32	1	1000	100	1	0
184	6	15	N	N	f	431.25	0	8	56	3	24	c	j	572.39	1	1000	1000	0	0
184	6	16	N	N	f	517.62	0	8	24	2	56	i	j	789.51	1	1000	100	0	0
184	6	17	P	P	d	630.42	1	7	24	3	56	i	n	503.29	1	1000	1000	1	0
184	6	18	P	P	d	628.89	1	9	56	2	24	c	j	614.28	1	100	100	0	0
184	6	19	P	P	d	594.41	1	8	56	3	24	c	j	545.98	1	1000	100	0	0
184	6	20	P	P	d	582.06	1	9	24	2	56	i	n	697.17	1	100	100	0	0
184	6	21	N	N	f	560.51	0	8	24	4	56	i	j	770.99	1	100	100	1	0
184	6	22	N	N	f	517.47	0	3	24	9	56	c	n	530.31	1	100	100	0	0
184	6	23	N	N	f	549.12	0	9	56	2	24	c	j	527.67	1	100	1000	0	0
184	6	24	N	N	f	545.57	0	3	24	7	56	c	n	660.03	1	1000	1000	0	0
184	6	25	N	N	f	454.75	0	4	56	7	24	i	n	945.25	1	100	100	0	0
184	6	26	P	P	d	670.9	1	9	24	3	56	i	n	1271.05	1	100	100	1	0
184	6	27	N	N	f	887.37	0	2	56	8	24	i	n	887.64	1	100	100	1	0
184	6	28	P	P	d	720.04	1	3	56	9	24	i	n	718.8	0	100	100	1	0
184	6	29	P	P	d	1054.59	1	2	24	9	56	c	n	786.13	1	100	1000	0	1
184	6	30	N	N	f	627.34	0	3	56	7	24	i	n	1073.48	1	1000	1000	1	0
184	6	31	N	N	f	744.9	0	2	56	9	24	i	n	1051.76	1	100	1000	0	0
184	6	32	N	N	f	850.77	0	3	56	7	24	i	n	1451.9	1	1000	1000	0	0
184	6	33	P	P	d	675.66	1	9	56	4	24	c	j	937.56	1	1000	1000	1	0
184	6	34	N	N	f	1066.41	0	7	24	3	56	i	j	1429.66	1	1000	100	1	0
184	6	35	P	P	d	2155.16	1	4	24	7	56	c	n	1280.4	1	1000	1000	1	0
184	6	36	P	P	d	850.85	1	2	56	7	24	i	j	1260.25	1	1000	1000	0	0
184	6	37	N	N	f	442.92	0	7	56	3	24	c	j	1895.74	1	1000	100	1	0
184	6	38	N	N	f	703.48	0	4	24	9	56	c	n	515.05	1	100	1000	0	0
184	6	39	P	P	d	596.45	1	3	24	8	56	c	n	773.69	1	100	100	1	0
184	6	40	N	N	f	450.77	0	4	24	9	56	c	n	445.68	1	1000	1000	1	0
184	6	41	P	P	d	401.5	1	2	56	9	24	i	j	963.56	1	100	1000	1	0
184	6	42	P	P	d	571.14	1	4	56	8	24	i	j	979.46	1	100	100	0	0
184	6	43	P	P	d	490.71	1	7	24	3	56	i	n	778.25	1	100	1000	0	0
184	6	44	P	P	d	658.4	1	9	56	4	24	c	j	464.78	1	1000	1000	0	0
184	6	45	N	N	f	819.5	0	8	56	2	24	c	j	853.06	1	100	1000	1	0
184	6	46	N	N	f	391.67	0	7	24	4	56	i	j	1094.79	1	100	100	0	0
184	6	47	P	P	d	704.61	1	9	56	2	24	c	j	831.3	1	100	1000	1	0
184	6	48	N	N	f	527.18	0	7	56	3	24	c	j	523.81	1	100	100	1	0
184	6	49	P	P	d	664.84	1	2	56	9	24	i	j	933.25	1	1000	100	1	0
184	6	50	N	N	f	629.37	0	7	56	4	24	c	j	985.34	1	1000	1000	1	0
184	6	51	N	N	f	795.46	0	2	24	8	56	c	n	727.59	1	1000	100	0	0
184	6	52	N	N	f	825.82	0	4	56	8	24	i	n	995.13	1	1000	100	0	0
184	6	53	N	N	f	568.73	0	7	24	2	56	i	j	716.28	1	100	1000	0	0
184	6	54	N	N	f	404.64	0	8	56	3	24	c	j	653.25	1	1000	100	0	0
184	6	55	P	P	d	560.99	1	8	24	2	56	i	n	860.73	1	100	1000	1	0
184	6	56	N	N	f	589.4	0	9	24	4	56	i	j	900.8	1	1000	1000	1	0
184	6	57	P	P	d	597.76	1	2	24	7	56	c	n	503.57	1	100	1000	1	0
184	6	58	P	P	d	583.21	1	3	56	7	24	i	j	912.01	1	1000	100	0	0
184	6	59	N	N	f	648.04	0	8	24	4	56	i	j	1292.25	1	100	1000	1	0
184	6	60	N	N	f	700.71	0	9	56	3	24	c	j	1329.47	1	100	100	0	0
184	6	61	P	P	d	525.3	1	9	56	2	24	c	j	521.73	1	100	100	1	0
184	6	62	P	P	d	640.77	1	4	56	7	24	i	j	1251.52	1	100	1000	0	0
184	6	63	N	N	f	541.76	0	2	24	9	56	c	n	508.94	1	100	1000	1	0
184	6	64	P	P	d	464.89	1	8	56	3	24	c	j	617.74	1	1000	100	1	0
184	6	65	P	P	d	536.92	1	7	56	2	24	c	j	560.74	1	100	1000	0	0
