subj	block	trial	task_cue	task	choice_resp	choiceRT	choice_acc	topnum	topsize	botnum	botsize	cong	task_resp	taskRT	task_acc	RSI	CSI	altRep	E1
189	1	1	?	N	d	1035.0	NA	4	24	7	56	c	n	2155.34	1	100	100	-1	0
189	1	2	?	P	f	1437.36	NA	2	56	7	24	i	j	3406.08	1	100	100	0	0
189	1	3	?	N	d	701.95	NA	8	24	3	56	i	j	3406.28	1	1000	100	0	0
189	1	4	?	N	d	1371.18	NA	9	56	4	24	c	j	2237.99	1	100	1000	0	0
189	1	5	?	P	f	385.85	NA	2	56	8	24	i	j	1619.0	1	1000	1000	0	0
189	1	6	?	P	f	736.78	NA	9	24	3	56	i	n	1637.47	1	1000	100	0	0
189	1	7	?	P	f	568.85	NA	2	56	7	24	i	j	1804.26	1	1000	1000	0	0
189	1	8	?	N	d	386.1	NA	4	56	8	24	i	n	1687.83	1	1000	100	0	0
189	1	9	?	N	d	1654.15	NA	8	24	2	56	i	j	1537.47	1	1000	100	0	0
189	1	10	?	P	f	84.82	NA	3	24	8	56	c	n	1337.26	1	1000	100	0	0
189	1	11	?	P	f	1070.84	NA	4	24	7	56	c	n	1904.47	1	100	100	0	0
189	1	12	?	N	d	1171.47	NA	3	24	9	56	c	n	936.12	1	100	100	0	0
189	1	13	?	N	d	702.98	NA	9	24	2	56	i	j	1453.18	1	100	100	0	0
189	1	14	?	P	f	734.6	NA	9	56	3	24	c	j	1302.34	1	100	1000	0	0
189	1	15	?	P	f	418.34	NA	8	24	4	56	i	n	986.75	1	1000	1000	0	0
189	1	16	?	N	d	335.66	NA	8	24	3	56	i	j	853.37	1	1000	100	0	0
189	1	17	?	N	d	1287.34	NA	7	56	2	24	c	j	469.73	1	100	1000	0	0
189	1	18	?	N	d	452.51	NA	8	56	4	24	c	j	353.23	1	1000	1000	0	0
189	1	19	?	P	f	2522.4	NA	9	24	2	56	i	n	1118.76	1	100	100	0	0
189	1	20	?	P	f	3372.29	NA	4	24	8	56	c	n	700.43	1	100	1000	0	0
189	1	21	?	N	d	1604.55	NA	3	24	9	56	c	n	485.91	1	100	1000	0	0
189	1	22	?	N	d	1587.89	NA	4	56	7	24	i	n	1151.82	1	100	100	0	0
189	1	23	?	N	d	820.65	NA	9	56	2	24	c	j	686.18	1	100	100	0	0
189	1	24	?	N	d	335.92	NA	3	24	8	56	c	n	934.8	1	1000	1000	0	0
189	1	25	?	P	f	85.78	NA	9	24	2	56	i	n	919.15	1	1000	1000	0	0
189	1	26	?	P	f	352.6	NA	7	56	4	24	c	j	954.11	1	1000	100	0	0
189	1	27	?	P	f	870.12	NA	2	24	7	56	c	n	452.2	1	100	100	0	0
189	1	28	?	P	f	1053.95	NA	7	56	4	24	c	j	1171.52	1	100	1000	0	0
189	1	29	?	N	d	485.81	NA	3	24	7	56	c	n	836.87	1	100	1000	0	0
189	1	30	?	N	d	385.91	NA	2	24	8	56	c	n	570.07	1	1000	100	0	0
189	1	31	?	N	d	352.14	NA	4	24	8	56	c	n	502.98	1	1000	100	0	0
189	1	32	?	P	f	2.39	NA	9	56	3	24	c	j	686.17	1	1000	1000	0	0
189	1	33	?	P	f	1387.57	NA	9	56	4	24	c	j	553.43	1	100	100	0	0
189	1	34	?	P	f	352.49	NA	8	24	2	56	i	n	786.38	1	1000	1000	0	0
189	1	35	?	N	d	419.11	NA	3	24	8	56	c	n	418.88	1	1000	1000	0	0
189	1	36	?	N	d	302.56	NA	7	24	4	56	i	n	635.79	0	1000	1000	0	0
189	1	37	?	P	f	1386.97	NA	8	56	3	24	c	j	717.82	1	100	100	0	1
189	1	38	?	N	d	1654.02	NA	4	56	7	24	i	n	1203.99	1	1000	100	0	0
189	1	39	?	P	f	1070.55	NA	3	56	7	24	i	j	1086.16	1	100	1000	0	0
189	1	40	?	P	f	536.06	NA	7	56	2	24	c	j	887.04	1	1000	1000	0	0
189	1	41	?	P	f	636.52	NA	8	24	3	56	i	n	1237.28	1	100	1000	0	0
189	1	42	?	N	d	652.45	NA	4	24	9	56	c	n	1120.77	1	1000	1000	0	0
189	1	43	?	N	d	387.06	NA	3	56	8	24	i	n	937.01	1	100	1000	0	0
189	1	44	?	N	d	1120.06	NA	2	56	9	24	i	n	1204.05	1	1000	100	0	0
189	1	45	?	N	d	702.64	NA	4	56	8	24	i	n	1120.41	1	1000	1000	0	0
189	1	46	?	P	f	420.73	NA	9	24	3	56	i	j	970.17	0	100	100	0	0
189	1	47	?	P	f	1570.77	NA	2	24	7	56	c	n	869.79	1	100	100	0	1
189	1	48	?	P	f	519.89	NA	8	24	3	56	i	n	1103.31	1	100	1000	0	0
189	1	49	?	P	f	853.29	NA	2	24	8	56	c	n	2004.89	1	1000	100	0	0
189	1	50	?	N	d	935.08	NA	9	24	3	56	i	j	6860.04	1	100	1000	0	0
189	1	51	?	N	d	853.58	NA	4	24	9	56	c	n	2655.68	1	100	1000	0	0
189	1	52	?	N	d	335.65	NA	9	56	3	24	c	j	1370.36	1	1000	100	0	0
189	1	53	?	N	d	219.48	NA	7	56	4	24	c	j	1053.94	1	1000	1000	0	0
189	1	54	?	P	f	302.26	NA	2	56	7	24	i	j	569.63	1	1000	1000	0	0
189	1	55	?	P	f	3606.25	NA	7	56	3	24	c	j	535.63	1	100	100	0	0
189	1	56	?	P	f	3105.46	NA	4	56	7	24	i	j	569.64	1	100	100	0	0
189	1	57	?	P	f	369.2	NA	7	56	3	24	c	j	552.93	1	1000	100	0	0
189	1	58	?	P	f	5391.69	NA	4	56	9	24	i	n	1137.1	0	100	1000	0	0
189	1	59	?	P	f	1036.97	NA	3	56	8	24	i	j	536.05	1	100	100	0	1
189	1	60	?	N	d	453.25	NA	9	24	2	56	i	j	652.98	1	100	1000	0	0
189	1	61	?	N	d	402.66	NA	4	56	8	24	i	n	784.32	1	100	100	0	0
189	1	62	?	N	d	467.79	NA	3	56	8	24	i	n	536.31	1	100	1000	0	0
189	1	63	?	N	d	135.7	NA	7	24	2	56	i	n	735.99	0	1000	100	0	0
189	1	64	?	P	f	1169.87	NA	3	24	9	56	c	n	1070.19	1	1000	1000	0	1
189	1	65	?	P	f	469.7	NA	8	56	4	24	c	j	653.42	1	1000	100	0	0
189	2	1	?	P	f	2655.26	NA	9	24	4	56	i	n	1771.14	1	1000	1000	-1	0
189	2	2	?	P	f	1435.45	NA	3	24	9	56	c	n	869.67	1	100	100	0	0
189	2	3	?	P	f	203.01	NA	7	56	2	24	c	j	1053.21	1	100	1000	0	0
189	2	4	?	N	d	285.41	NA	8	56	4	24	c	j	1036.7	1	1000	100	0	0
189	2	5	?	N	d	319.26	NA	8	56	3	24	c	j	519.97	1	1000	1000	0	0
189	2	6	?	N	d	736.76	NA	9	56	2	24	c	j	569.53	1	100	100	0	0
189	2	7	?	N	d	653.47	NA	4	24	9	56	c	n	1187.67	1	100	1000	0	0
189	2	8	?	N	d	1070.62	NA	3	24	9	56	c	n	803.12	1	100	1000	0	0
189	2	9	?	P	f	1604.26	NA	8	24	2	56	i	n	1570.83	1	100	1000	0	0
189	2	10	?	P	f	853.17	NA	4	24	8	56	c	n	468.72	1	1000	100	0	0
189	2	11	?	P	f	2271.8	NA	2	24	9	56	c	n	369.45	1	100	1000	0	0
189	2	12	?	P	f	369.19	NA	4	56	9	24	i	n	736.92	0	1000	100	0	0
189	2	13	?	N	d	1554.56	NA	8	24	2	56	i	j	1020.87	1	100	1000	0	1
189	2	14	?	N	d	1003.93	NA	4	56	9	24	i	n	885.96	1	100	100	0	0
189	2	15	?	N	d	419.04	NA	3	24	8	56	c	n	1320.66	1	1000	100	0	0
189	2	16	?	N	d	402.52	NA	8	56	2	24	c	j	536.33	1	1000	100	0	0
189	2	17	?	N	d	686.12	NA	3	56	9	24	i	n	870.28	1	1000	100	0	0
189	2	18	?	P	f	1337.22	NA	8	56	2	24	c	j	553.21	1	100	1000	0	0
189	2	19	?	P	f	34.9	NA	7	56	4	24	c	j	1304.23	1	1000	1000	0	0
189	2	20	?	P	f	218.99	NA	3	24	7	56	c	n	1588.07	1	1000	100	0	0
189	2	21	?	P	f	802.99	NA	9	56	4	24	c	j	519.85	1	100	100	0	0
189	2	22	?	P	f	518.9	NA	9	56	3	24	c	j	569.81	1	1000	1000	0	0
189	2	23	?	N	d	636.68	NA	2	24	8	56	c	n	786.94	1	100	100	0	0
189	2	24	?	N	d	602.95	NA	9	24	4	56	i	n	352.78	0	1000	1000	0	0
189	2	25	?	P	f	2154.44	NA	7	56	3	24	c	j	485.39	1	100	100	0	1
189	2	26	?	N	d	368.85	NA	2	56	7	24	i	j	869.42	0	1000	100	0	0
189	2	27	?	N	d	2004.01	NA	3	56	7	24	i	n	903.79	1	100	100	0	1
189	2	28	?	N	d	402.19	NA	7	56	2	24	c	j	1520.45	1	1000	100	0	0
189	2	29	?	N	d	653.16	NA	3	24	7	56	c	n	1404.03	1	1000	1000	0	0
189	2	30	?	P	f	468.32	NA	2	56	7	24	i	j	2021.27	1	1000	1000	0	0
189	2	31	?	P	f	770.1	NA	3	24	9	56	c	n	1303.6	1	100	100	0	0
189	2	32	?	P	f	737.06	NA	2	56	7	24	i	j	1053.39	1	100	1000	0	0
189	2	33	?	N	d	52.18	NA	3	24	8	56	c	n	2204.7	1	1000	1000	0	0
189	2	34	?	P	f	819.54	NA	4	56	9	24	i	j	1769.22	1	1000	1000	0	0
189	2	35	?	P	f	519.36	NA	9	56	2	24	c	j	1835.65	1	1000	100	0	0
189	2	36	?	N	d	302.37	NA	4	56	8	24	i	n	4006.74	1	1000	1000	0	0
189	2	37	?	N	d	1437.27	NA	9	24	2	56	i	j	1318.91	1	100	100	0	0
189	2	38	?	P	f	435.88	NA	4	24	7	56	c	n	853.13	1	1000	1000	0	0
189	2	39	?	P	f	2905.64	NA	7	24	3	56	i	n	1254.09	1	100	100	0	0
189	2	40	?	P	f	319.12	NA	4	56	7	24	i	j	1118.89	1	1000	100	0	0
189	2	41	?	P	f	537.28	NA	9	24	3	56	i	n	1754.38	1	100	100	0	0
189	2	42	?	N	d	650.72	NA	9	56	4	24	c	j	1420.61	1	100	1000	0	0
189	2	43	?	P	f	636.5	NA	8	24	3	56	i	n	2255.08	1	100	1000	0	0
189	2	44	?	P	f	586.1	NA	4	24	7	56	c	n	602.7	1	1000	1000	0	0
189	2	45	?	N	d	452.26	NA	7	24	2	56	i	j	819.64	1	1000	100	0	0
189	2	46	?	P	f	987.43	NA	7	24	4	56	i	n	453.14	1	100	1000	0	0
189	2	47	?	N	d	503.53	NA	8	24	3	56	i	j	1437.6	1	100	100	0	0
189	2	48	?	P	f	486.4	NA	4	56	7	24	i	n	1069.24	0	100	100	0	0
189	2	49	?	P	f	887.11	NA	2	56	7	24	i	j	1887.75	1	100	100	0	1
189	2	50	?	P	f	953.25	NA	9	56	4	24	c	j	1020.1	1	100	1000	0	0
189	2	51	?	N	d	820.64	NA	9	24	3	56	i	j	2005.64	1	100	1000	0	0
189	2	52	?	P	f	786.19	NA	2	56	9	24	i	j	1887.54	1	1000	1000	0	0
189	2	53	?	P	f	335.87	NA	3	56	7	24	i	j	1136.85	1	1000	100	0	0
189	2	54	?	P	f	1487.61	NA	8	56	4	24	c	j	1020.91	1	100	100	0	0
189	2	55	?	N	d	334.91	NA	2	56	8	24	i	j	1387.87	0	1000	100	0	0
189	2	56	?	N	d	1220.18	NA	3	24	8	56	c	n	803.57	1	100	100	0	1
189	2	57	?	N	d	285.75	NA	4	24	7	56	c	n	1037.06	1	1000	100	0	0
189	2	58	?	N	d	369.27	NA	8	56	3	24	c	j	1103.38	1	1000	1000	0	0
189	2	59	?	N	d	369.1	NA	2	56	9	24	i	n	1420.1	1	1000	1000	0	0
189	2	60	?	N	d	502.99	NA	3	56	8	24	i	n	1637.41	1	100	1000	0	0
189	2	61	?	P	f	937.04	NA	2	24	9	56	c	n	2438.31	1	100	1000	0	0
189	2	62	?	P	f	1637.12	NA	3	56	9	24	i	j	653.76	1	100	1000	0	0
189	2	63	?	P	f	452.66	NA	7	24	2	56	i	n	687.15	1	1000	1000	0	0
189	2	64	?	P	f	803.2	NA	9	24	3	56	i	n	1237.53	1	1000	1000	0	0
189	2	65	?	N	d	435.82	NA	2	56	8	24	i	n	770.24	1	1000	100	0	0
189	3	1	?	P	f	986.63	NA	2	24	8	56	c	n	1687.39	1	100	100	-1	0
189	3	2	?	P	f	920.34	NA	4	24	8	56	c	n	484.44	1	100	100	0	0
189	3	3	?	N	d	119.88	NA	9	24	2	56	i	j	1020.43	1	1000	1000	0	0
189	3	4	?	N	d	453.48	NA	8	24	4	56	i	j	1437.62	1	100	1000	0	0
189	3	5	?	P	f	453.47	NA	7	24	2	56	i	n	737.17	1	1000	100	0	0
189	3	6	?	P	f	385.65	NA	7	56	3	24	c	j	970.28	1	1000	100	0	0
189	3	7	?	N	d	369.26	NA	4	24	7	56	c	n	1053.63	1	1000	100	0	0
189	3	8	?	P	f	1287.32	NA	2	56	7	24	i	j	1554.29	1	100	100	0	0
189	3	9	?	P	f	352.17	NA	9	56	4	24	c	j	1320.45	1	1000	100	0	0
189	3	10	?	P	f	653.37	NA	2	24	9	56	c	n	668.99	1	100	100	0	0
189	3	11	?	P	f	703.51	NA	9	56	3	24	c	j	487.21	1	100	100	0	0
189	3	12	?	N	d	435.87	NA	8	24	2	56	i	j	1370.15	1	1000	100	0	0
189	3	13	?	P	f	1203.6	NA	9	56	3	24	c	j	4307.19	1	100	1000	0	0
189	3	14	?	P	f	401.89	NA	8	24	2	56	i	n	519.35	1	1000	1000	0	0
189	3	15	?	N	d	737.49	NA	4	56	7	24	i	n	972.97	1	100	1000	0	0
189	3	16	?	P	f	302.23	NA	2	24	7	56	c	n	670.4	1	1000	100	0	0
189	3	17	?	N	d	202.65	NA	9	56	3	24	c	j	686.59	1	1000	1000	0	0
189	3	18	?	N	d	602.4	NA	8	56	2	24	c	j	719.56	1	1000	100	0	0
189	3	19	?	N	d	536.6	NA	9	56	3	24	c	n	953.54	0	100	100	0	0
189	3	20	?	N	d	617.51	NA	2	56	7	24	i	n	803.14	1	100	1000	0	1
189	3	21	?	P	f	836.84	NA	4	24	8	56	c	n	936.69	1	100	1000	0	0
189	3	22	?	P	f	651.35	NA	3	24	7	56	c	n	1020.04	1	1000	1000	0	0
189	3	23	?	P	f	1036.75	NA	4	24	8	56	c	n	1334.08	1	100	100	0	0
189	3	24	?	P	f	619.95	NA	8	24	3	56	i	n	1202.83	1	100	1000	0	0
189	3	25	?	N	d	637.34	NA	4	56	8	24	i	n	1120.0	1	100	100	0	0
189	3	26	?	N	d	452.61	NA	2	56	8	24	i	n	620.22	1	1000	100	0	0
189	3	27	?	P	f	553.09	NA	7	24	3	56	i	n	753.38	1	1000	1000	0	0
189	3	28	?	N	d	1020.53	NA	9	24	4	56	i	j	1887.11	1	100	100	0	0
189	3	29	?	N	d	502.72	NA	9	56	3	24	c	j	886.68	1	1000	100	0	0
189	3	30	?	P	f	135.72	NA	4	56	7	24	i	n	837.28	0	1000	100	0	0
189	3	31	?	P	f	553.86	NA	9	56	3	24	c	j	836.72	1	100	1000	0	1
189	3	32	?	N	d	803.32	NA	7	24	2	56	i	j	3790.57	1	1000	1000	0	0
189	3	33	?	P	f	152.4	NA	7	56	3	24	c	j	669.18	1	1000	1000	0	0
189	3	34	?	P	f	519.24	NA	2	24	9	56	c	n	436.16	1	100	1000	0	0
189	3	35	?	N	d	720.28	NA	4	24	8	56	c	n	486.51	1	100	1000	0	0
189	3	36	?	P	f	718.86	NA	7	24	3	56	i	j	853.75	0	100	100	0	0
189	3	37	?	N	d	803.99	NA	9	56	4	24	c	j	602.62	1	100	100	0	1
189	3	38	?	N	d	569.71	NA	8	24	2	56	i	j	502.82	1	100	1000	0	0
189	3	39	?	P	f	535.99	NA	4	24	8	56	c	n	468.69	1	1000	1000	0	0
189	3	40	?	P	f	386.17	NA	2	24	9	56	c	n	903.46	1	1000	1000	0	0
189	3	41	?	P	f	1020.04	NA	8	24	4	56	i	j	703.12	0	1000	100	0	0
189	3	42	?	P	f	452.79	NA	3	24	8	56	c	n	434.16	1	1000	100	0	1
189	3	43	?	P	f	353.46	NA	4	56	7	24	i	j	1487.82	1	1000	100	0	0
189	3	44	?	N	d	1471.24	NA	9	56	2	24	c	j	1287.73	1	100	1000	0	0
189	3	45	?	N	d	419.26	NA	4	56	9	24	i	n	636.76	1	1000	1000	0	0
189	3	46	?	P	f	1909.2	NA	3	56	8	24	i	j	554.1	1	100	1000	0	0
189	3	47	?	P	f	1805.68	NA	2	56	7	24	i	j	417.92	1	100	1000	0	0
189	3	48	?	N	d	2572.64	NA	3	24	7	56	c	n	919.99	1	100	100	0	0
189	3	49	?	N	d	453.02	NA	8	24	4	56	i	j	919.56	1	1000	1000	0	0
189	3	50	?	P	f	452.67	NA	2	56	9	24	i	j	770.24	1	100	100	0	0
189	3	51	?	P	f	569.55	NA	4	24	9	56	c	n	602.92	1	1000	100	0	0
189	3	52	?	N	d	202.72	NA	8	24	3	56	i	j	702.93	1	1000	100	0	0
189	3	53	?	P	f	620.52	NA	2	56	8	24	i	n	652.44	0	100	100	0	0
189	3	54	?	N	d	536.5	NA	8	56	3	24	c	j	1685.58	1	100	100	0	1
189	3	55	?	P	f	36.0	NA	7	24	4	56	i	n	1336.64	1	1000	1000	0	0
189	3	56	?	P	f	1138.24	NA	9	24	3	56	i	n	1387.76	1	100	100	0	0
189	3	57	?	N	d	1020.23	NA	4	56	7	24	i	n	687.15	1	100	1000	0	0
189	3	58	?	N	d	753.02	NA	2	56	9	24	i	n	670.34	1	100	100	0	0
189	3	59	?	N	d	468.54	NA	7	56	4	24	c	j	936.55	1	1000	1000	0	0
189	3	60	?	N	d	269.01	NA	8	24	3	56	i	j	986.32	1	1000	1000	0	0
189	3	61	?	N	d	586.69	NA	2	56	7	24	i	n	820.35	1	1000	100	0	0
189	3	62	?	P	f	552.36	NA	3	24	8	56	c	n	1251.45	1	100	1000	0	0
189	3	63	?	P	f	469.8	NA	9	56	2	24	c	j	1087.11	1	1000	1000	0	0
189	3	64	?	P	f	436.4	NA	8	56	4	24	c	j	651.34	1	100	1000	0	0
189	3	65	?	P	f	153.12	NA	2	24	7	56	c	n	520.0	1	1000	1000	0	0
189	4	1	?	P	f	450.85	NA	9	56	3	24	c	j	702.82	1	1000	100	-1	0
189	4	2	?	N	d	302.39	NA	4	24	7	56	c	n	884.51	1	1000	1000	0	0
189	4	3	?	P	f	353.59	NA	3	24	7	56	c	n	1554.39	1	1000	100	0	0
189	4	4	?	N	d	1236.66	NA	9	56	2	24	c	j	1053.0	1	100	1000	0	0
189	4	5	?	N	d	969.81	NA	4	24	8	56	c	n	570.5	1	1000	100	0	0
189	4	6	?	N	d	470.11	NA	8	56	2	24	c	j	820.22	1	100	1000	0	0
189	4	7	?	P	f	969.79	NA	4	56	8	24	i	j	603.09	1	1000	1000	0	0
189	4	8	?	N	d	2755.61	NA	3	56	7	24	i	n	1353.87	1	100	1000	0	0
189	4	9	?	P	f	970.35	NA	2	24	9	56	c	n	1036.88	1	100	100	0	0
189	4	10	?	P	f	401.94	NA	4	56	7	24	i	j	468.8	1	1000	100	0	0
189	4	11	?	P	f	519.27	NA	8	24	3	56	i	n	636.2	1	100	100	0	0
189	4	12	?	P	f	469.83	NA	4	56	9	24	i	j	987.12	1	100	100	0	0
189	4	13	?	N	d	19.99	NA	9	56	3	24	c	j	553.71	1	1000	100	0	0
189	4	14	?	P	f	921.34	NA	7	24	2	56	i	n	1470.81	1	100	100	0	0
189	4	15	?	N	d	319.39	NA	7	24	3	56	i	j	3337.52	1	100	1000	0	0
189	4	16	?	N	d	1370.87	NA	9	56	4	24	c	j	753.41	1	100	100	0	0
189	4	17	?	N	d	236.82	NA	7	56	3	24	c	j	569.55	1	100	100	0	0
189	4	18	?	N	d	102.6	NA	4	24	7	56	c	n	987.16	1	100	1000	0	0
189	4	19	?	N	d	102.61	NA	9	24	2	56	i	j	1487.28	1	1000	1000	0	0
189	4	20	?	P	f	519.35	NA	8	56	4	24	c	j	903.11	1	1000	100	0	0
189	4	21	?	P	f	386.0	NA	8	24	3	56	i	n	386.19	1	1000	1000	0	0
189	4	22	?	P	f	419.57	NA	7	24	2	56	i	n	853.32	1	100	100	0	0
189	4	23	?	P	f	83.47	NA	9	24	3	56	i	n	385.59	1	100	1000	0	0
189	4	24	?	P	f	135.57	NA	2	24	8	56	c	n	636.49	1	100	1000	0	0
189	4	25	?	N	d	68.59	NA	3	24	8	56	c	n	1453.82	1	1000	1000	0	0
189	4	26	?	P	f	335.23	NA	2	56	9	24	i	j	1337.18	1	1000	1000	0	0
189	4	27	?	N	d	886.68	NA	4	24	8	56	c	n	569.67	1	100	100	0	0
189	4	28	?	N	d	486.1	NA	8	56	2	24	c	j	636.63	1	1000	100	0	0
189	4	29	?	P	f	586.24	NA	7	56	3	24	c	j	569.47	1	100	100	0	0
189	4	30	?	P	f	620.08	NA	2	56	8	24	i	j	1337.45	1	1000	100	0	0
189	4	31	?	P	f	519.45	NA	3	24	7	56	c	n	503.02	1	1000	1000	0	0
189	4	32	?	N	d	453.04	NA	2	56	9	24	i	j	786.63	0	100	1000	0	0
189	4	33	?	N	d	102.38	NA	8	56	4	24	c	j	987.68	1	1000	1000	0	1
189	4	34	?	N	d	18.88	NA	2	56	7	24	i	n	973.25	1	1000	100	0	0
189	4	35	?	P	f	419.02	NA	7	24	4	56	i	n	919.68	1	1000	100	0	0
189	4	36	?	P	f	836.36	NA	7	24	3	56	i	n	569.98	1	100	1000	0	0
189	4	37	?	P	f	486.17	NA	7	24	2	56	i	n	653.28	1	1000	100	0	0
189	4	38	?	N	d	283.72	NA	4	56	7	24	i	n	770.34	1	1000	1000	0	0
189	4	39	?	N	d	536.26	NA	2	24	8	56	c	n	920.23	1	100	1000	0	0
189	4	40	?	N	d	236.51	NA	4	24	8	56	c	n	419.5	1	1000	100	0	0
189	4	41	?	N	d	236.77	NA	8	56	3	24	c	j	870.01	1	100	1000	0	0
189	4	42	?	N	d	336.54	NA	4	24	8	56	c	n	403.3	1	100	100	0	0
189	4	43	?	N	d	68.37	NA	8	56	3	24	c	j	819.8	1	1000	100	0	0
189	4	44	?	P	f	569.77	NA	2	56	7	24	i	j	3039.16	1	100	100	0	0
189	4	45	?	P	f	369.49	NA	8	56	4	24	c	j	767.89	1	1000	1000	0	0
189	4	46	?	P	f	519.76	NA	3	56	9	24	i	j	619.82	1	100	1000	0	0
189	4	47	?	P	f	400.58	NA	8	24	4	56	i	n	636.51	1	1000	1000	0	0
189	4	48	?	N	d	370.11	NA	8	24	3	56	i	n	636.65	0	100	1000	0	0
189	4	49	?	N	d	669.93	NA	4	56	9	24	i	n	802.74	1	100	100	0	1
189	4	50	?	P	f	220.5	NA	3	56	8	24	i	j	1421.11	1	100	100	0	0
189	4	51	?	N	d	119.34	NA	4	56	8	24	i	n	3907.39	1	1000	1000	0	0
189	4	52	?	N	d	236.93	NA	3	24	8	56	c	n	536.39	1	1000	1000	0	0
189	4	53	?	N	d	502.57	NA	7	56	2	24	c	j	901.11	1	100	100	0	0
189	4	54	?	P	f	168.68	NA	4	24	9	56	c	n	570.21	1	100	100	0	0
189	4	55	?	P	f	502.22	NA	2	56	7	24	i	n	1137.4	0	100	1000	0	0
189	4	56	?	P	f	418.73	NA	4	56	9	24	i	j	520.18	1	1000	1000	0	1
189	4	57	?	P	f	552.78	NA	8	56	2	24	c	j	567.36	1	1000	1000	0	0
189	4	58	?	P	f	653.47	NA	9	56	3	24	c	j	519.75	1	1000	1000	0	0
189	4	59	?	N	d	686.73	NA	9	24	2	56	i	n	1036.59	0	100	100	0	0
189	4	60	?	P	f	536.82	NA	9	56	4	24	c	j	503.27	1	100	1000	0	1
189	4	61	?	N	d	35.69	NA	7	24	3	56	i	j	2421.74	1	1000	100	0	0
189	4	62	?	N	d	419.29	NA	4	24	8	56	c	n	970.16	1	1000	100	0	0
189	4	63	?	N	d	335.92	NA	3	56	8	24	i	n	1721.13	1	1000	100	0	0
189	4	64	?	P	f	452.97	NA	2	24	8	56	c	n	851.78	1	100	1000	0	0
189	4	65	?	P	f	169.92	NA	3	56	8	24	i	j	1537.94	1	1000	100	0	0
189	5	1	?	N	d	86.12	NA	8	24	4	56	i	j	1688.14	1	1000	100	-1	0
189	5	2	?	N	d	336.13	NA	2	24	7	56	c	n	2072.01	1	100	1000	0	0
189	5	3	?	N	d	352.97	NA	3	24	7	56	c	n	635.89	1	100	100	0	0
189	5	4	?	P	f	352.91	NA	9	56	4	24	c	j	769.71	1	1000	1000	0	0
189	5	5	?	P	f	2255.3	NA	8	24	2	56	i	n	1054.25	1	100	1000	0	0
189	5	6	?	P	f	953.72	NA	4	24	7	56	c	n	467.41	1	1000	100	0	0
189	5	7	?	P	f	385.94	NA	3	56	8	24	i	j	1687.46	1	1000	1000	0	0
189	5	8	?	P	f	1955.37	NA	7	24	2	56	i	n	1754.39	1	100	100	0	0
189	5	9	?	N	d	2087.98	NA	3	24	8	56	c	n	603.0	1	100	1000	0	0
189	5	10	?	P	f	2504.76	NA	4	56	7	24	i	j	1537.82	1	1000	100	0	0
189	5	11	?	P	f	753.26	NA	8	56	3	24	c	j	719.33	1	100	1000	0	0
189	5	12	?	N	d	686.5	NA	4	56	8	24	i	j	686.81	0	100	100	0	0
189	5	13	?	N	d	552.21	NA	3	24	7	56	c	n	486.45	1	100	100	0	1
189	5	14	?	N	d	286.02	NA	4	24	9	56	c	n	936.87	1	1000	1000	0	0
189	5	15	?	P	f	269.06	NA	9	24	2	56	i	j	803.66	0	1000	100	0	0
189	5	16	?	P	f	451.98	NA	4	56	7	24	i	j	836.18	1	1000	100	0	1
189	5	17	?	N	d	853.28	NA	9	56	3	24	c	j	1134.99	1	100	1000	0	0
189	5	18	?	P	f	1020.68	NA	2	24	9	56	c	n	735.86	1	100	100	0	0
189	5	19	?	N	d	536.9	NA	4	24	9	56	c	n	586.33	1	100	1000	0	0
189	5	20	?	P	f	570.15	NA	8	56	3	24	c	j	719.7	1	100	100	0	0
189	5	21	?	N	d	453.13	NA	7	24	4	56	i	j	1154.35	1	100	1000	0	0
189	5	22	?	P	f	603.77	NA	3	24	9	56	c	n	670.09	1	100	100	0	0
189	5	23	?	N	d	2.44	NA	2	56	8	24	i	n	1037.5	1	1000	1000	0	0
189	5	24	?	N	d	1254.18	NA	7	24	4	56	i	j	1855.18	1	100	1000	0	0
189	5	25	?	N	d	836.32	NA	7	56	2	24	c	j	603.47	1	1000	1000	0	0
189	5	26	?	P	f	402.62	NA	9	24	3	56	i	n	1470.35	1	1000	1000	0	0
189	5	27	?	P	f	552.54	NA	4	24	7	56	c	n	1587.44	1	1000	100	0	0
189	5	28	?	P	f	819.37	NA	9	24	2	56	i	n	970.59	1	1000	100	0	0
189	5	29	?	N	d	253.0	NA	3	24	7	56	c	n	502.93	1	1000	100	0	0
189	5	30	?	P	f	219.39	NA	4	24	8	56	c	n	436.86	1	1000	100	0	0
189	5	31	?	P	f	202.7	NA	8	56	2	24	c	j	670.08	1	100	100	0	0
189	5	32	?	N	d	118.41	NA	7	56	4	24	c	j	536.17	1	1000	1000	0	0
189	5	33	?	P	f	335.27	NA	7	24	2	56	i	n	486.47	1	1000	1000	0	0
189	5	34	?	N	d	786.31	NA	8	24	3	56	i	n	1254.07	0	100	1000	0	0
189	5	35	?	N	d	636.89	NA	7	56	2	24	c	j	2688.66	1	100	1000	0	1
189	5	36	?	P	f	670.15	NA	9	24	3	56	i	n	1720.36	1	100	100	0	0
189	5	37	?	P	f	218.4	NA	4	24	7	56	c	n	369.32	1	1000	1000	0	0
189	5	38	?	N	d	1387.34	NA	2	24	7	56	c	n	586.32	1	100	1000	0	0
189	5	39	?	N	d	1203.77	NA	3	56	7	24	i	n	635.84	1	100	1000	0	0
189	5	40	?	P	f	786.71	NA	4	56	8	24	i	j	1119.81	1	100	100	0	0
189	5	41	?	N	d	469.87	NA	7	24	3	56	i	j	903.37	1	100	100	0	0
189	5	42	?	P	f	152.55	NA	7	24	4	56	i	n	2988.66	1	1000	100	0	0
189	5	43	?	P	f	836.88	NA	8	56	2	24	c	j	569.65	1	100	100	0	0
189	5	44	?	P	f	319.54	NA	8	24	3	56	i	n	434.26	1	100	100	0	0
189	5	45	?	P	f	218.91	NA	9	24	4	56	i	n	386.24	1	100	1000	0	0
189	5	46	?	N	d	384.91	NA	9	24	2	56	i	j	1220.01	1	1000	100	0	0
189	5	47	?	N	d	302.48	NA	7	56	4	24	c	j	886.96	1	1000	100	0	0
189	5	48	?	P	f	484.62	NA	8	56	2	24	c	j	1120.92	1	100	1000	0	0
189	5	49	?	P	f	36.04	NA	9	24	4	56	i	n	819.89	1	1000	100	0	0
189	5	50	?	N	d	302.06	NA	8	56	2	24	c	j	834.88	1	1000	100	0	0
189	5	51	?	N	d	103.12	NA	9	24	3	56	i	n	535.01	0	1000	100	0	0
189	5	52	?	N	d	435.55	NA	8	24	4	56	i	j	785.21	1	1000	1000	0	1
189	5	53	?	N	d	435.12	NA	7	24	3	56	i	j	969.98	1	1000	1000	0	0
189	5	54	?	P	f	152.47	NA	4	24	9	56	c	n	770.49	1	1000	1000	0	0
189	5	55	?	P	f	736.01	NA	2	24	7	56	c	n	803.71	1	1000	1000	0	0
189	5	56	?	P	f	602.8	NA	4	56	9	24	i	j	1220.37	1	100	100	0	0
189	5	57	?	P	f	336.15	NA	3	56	9	24	i	j	519.63	1	100	100	0	0
189	5	58	?	N	d	234.13	NA	7	56	4	24	c	j	603.05	1	1000	100	0	0
189	5	59	?	N	d	519.73	NA	8	56	2	24	c	j	886.62	1	100	100	0	0
189	5	60	?	N	d	369.11	NA	8	56	4	24	c	j	635.95	1	1000	100	0	0
189	5	61	?	P	f	253.34	NA	2	56	9	24	i	j	1303.87	1	1000	1000	0	0
189	5	62	?	P	f	169.7	NA	8	24	4	56	i	n	870.32	1	100	1000	0	0
189	5	63	?	P	f	169.72	NA	2	56	9	24	i	j	703.44	1	100	1000	0	0
189	5	64	?	P	f	252.37	NA	9	56	3	24	c	j	570.43	1	1000	1000	0	0
189	5	65	?	N	d	85.15	NA	4	56	7	24	i	n	987.32	1	1000	1000	0	0
189	6	1	?	N	d	151.77	NA	8	56	2	24	c	j	2038.35	1	1000	1000	-1	0
189	6	2	?	N	d	520.13	NA	7	56	4	24	c	j	553.69	1	100	1000	0	0
189	6	3	?	P	f	219.41	NA	9	56	3	24	c	j	486.65	1	1000	100	0	0
189	6	4	?	P	f	419.28	NA	2	56	8	24	i	j	519.99	1	100	1000	0	0
189	6	5	?	P	f	385.6	NA	9	24	4	56	i	n	1102.88	1	1000	100	0	0
189	6	6	?	N	d	419.72	NA	3	24	8	56	c	n	886.23	1	1000	100	0	0
189	6	7	?	N	d	300.32	NA	4	56	9	24	i	n	703.72	1	1000	1000	0	0
189	6	8	?	N	d	186.01	NA	2	56	9	24	i	n	520.09	1	1000	100	0	0
189	6	9	?	P	f	152.67	NA	8	24	4	56	i	j	1036.89	0	1000	100	0	0
189	6	10	?	P	f	169.67	NA	7	24	3	56	i	n	786.7	1	1000	1000	0	1
189	6	11	?	P	f	1855.0	NA	8	24	4	56	i	n	2154.84	1	100	1000	0	0
189	6	12	?	N	d	552.9	NA	8	24	2	56	i	n	619.95	0	100	100	0	0
189	6	13	?	N	d	269.43	NA	9	56	3	24	c	j	1854.47	1	100	1000	0	1
189	6	14	?	N	d	434.43	NA	8	56	4	24	c	j	769.58	1	100	1000	0	0
189	6	15	?	N	d	486.82	NA	2	56	7	24	i	n	720.33	1	100	100	0	0
189	6	16	?	P	f	35.51	NA	7	56	3	24	c	j	752.88	1	1000	100	0	0
189	6	17	?	P	f	2.66	NA	4	24	8	56	c	n	603.59	1	1000	100	0	0
189	6	18	?	P	f	119.33	NA	7	24	2	56	i	n	419.19	1	1000	100	0	0
189	6	19	?	P	f	1170.71	NA	8	56	3	24	c	j	670.1	1	100	100	0	0
189	6	20	?	P	f	520.85	NA	4	56	7	24	i	j	1437.86	1	1000	1000	0	0
189	6	21	?	N	d	1253.34	NA	9	24	2	56	i	j	2121.64	1	1000	100	0	0
189	6	22	?	N	d	386.13	NA	7	24	4	56	i	j	2371.96	1	100	1000	0	0
189	6	23	?	P	f	1921.53	NA	3	24	7	56	c	n	667.68	1	100	1000	0	0
189	6	24	?	P	f	470.17	NA	8	24	2	56	i	j	752.46	0	100	100	0	0
189	6	25	?	P	f	786.86	NA	3	24	7	56	c	n	653.37	1	100	1000	0	1
189	6	26	?	P	f	402.74	NA	8	56	2	24	c	j	569.71	1	100	100	0	0
189	6	27	?	N	d	102.22	NA	3	24	7	56	c	n	703.15	1	1000	100	0	0
189	6	28	?	N	d	553.18	NA	8	24	4	56	i	j	1770.63	1	100	100	0	0
189	6	29	?	N	d	420.09	NA	7	56	2	24	c	j	703.06	1	100	1000	0	0
189	6	30	?	N	d	3056.18	NA	3	56	7	24	i	n	2271.66	1	100	100	0	0
189	6	31	?	N	d	69.23	NA	9	24	4	56	i	j	767.94	1	1000	100	0	0
189	6	32	?	P	f	85.27	NA	3	56	7	24	i	n	853.24	0	1000	1000	0	0
189	6	33	?	P	f	954.04	NA	8	56	4	24	c	j	719.91	1	100	100	0	1
189	6	34	?	P	f	569.43	NA	8	56	2	24	c	j	1504.05	1	1000	1000	0	0
189	6	35	?	P	f	720.85	NA	3	24	8	56	c	n	586.96	1	100	1000	0	0
189	6	36	?	N	d	570.42	NA	2	56	8	24	i	n	603.43	1	100	1000	0	0
189	6	37	?	N	d	335.8	NA	3	24	9	56	c	n	652.68	1	1000	100	0	0
189	6	38	?	P	f	319.15	NA	2	24	8	56	c	n	970.0	1	1000	1000	0	0
189	6	39	?	N	d	637.33	NA	7	24	4	56	i	j	4724.25	1	100	1000	0	0
189	6	40	?	P	f	1354.37	NA	2	56	9	24	i	n	737.17	0	100	100	0	0
189	6	41	?	N	d	268.65	NA	7	56	4	24	c	j	836.74	1	1000	1000	0	1
189	6	42	?	N	d	1237.26	NA	8	24	2	56	i	j	603.69	1	100	100	0	0
189	6	43	?	N	d	486.41	NA	4	24	7	56	c	n	619.58	1	100	100	0	0
189	6	44	?	P	f	202.01	NA	8	56	3	24	c	j	486.43	1	1000	100	0	0
189	6	45	?	P	f	286.25	NA	2	24	7	56	c	n	518.9	1	100	100	0	0
189	6	46	?	P	f	36.51	NA	4	56	8	24	i	n	536.44	0	1000	1000	0	0
189	6	47	?	P	f	18.73	NA	3	24	8	56	c	n	502.86	1	1000	1000	0	1
189	6	48	?	P	f	500.77	NA	8	24	4	56	i	n	369.76	1	1000	1000	0	0
189	6	49	?	N	d	1604.69	NA	2	24	7	56	c	n	487.01	1	100	100	0	0
189	6	50	?	P	f	2204.59	NA	4	24	9	56	c	n	402.67	1	100	100	0	0
189	6	51	?	N	d	953.82	NA	2	56	7	24	i	n	469.67	1	100	1000	0	0
189	6	52	?	N	d	152.45	NA	7	56	4	24	c	j	686.65	1	100	100	0	0
189	6	53	?	N	d	319.12	NA	3	56	9	24	i	n	536.93	1	1000	1000	0	0
189	6	54	?	N	d	903.87	NA	4	24	9	56	c	n	1537.36	1	1000	1000	0	0
189	6	55	?	N	d	35.77	NA	8	56	3	24	c	j	1721.13	1	1000	1000	0	0
189	6	56	?	P	f	302.2	NA	8	56	4	24	c	j	703.74	1	1000	1000	0	0
189	6	57	?	P	f	553.18	NA	9	24	3	56	i	n	569.3	1	100	100	0	0
189	6	58	?	P	f	319.81	NA	7	56	4	24	c	j	519.9	1	1000	100	0	0
189	6	59	?	P	f	52.58	NA	3	56	7	24	i	j	769.83	1	1000	1000	0	0
189	6	60	?	N	d	236.74	NA	2	24	9	56	c	n	486.61	1	100	1000	0	0
189	6	61	?	P	f	452.28	NA	3	24	8	56	c	n	551.38	1	1000	1000	0	0
189	6	62	?	N	d	302.41	NA	8	24	2	56	i	j	1671.47	1	1000	100	0	0
189	6	63	?	P	f	1104.35	NA	3	56	9	24	i	j	1286.89	1	100	1000	0	0
189	6	64	?	P	f	553.42	NA	7	24	4	56	i	n	1201.62	1	100	1000	0	0
189	6	65	?	N	d	168.92	NA	9	24	2	56	i	n	503.71	0	1000	100	0	0
