subj	block	trial	task_cue	task	choice_resp	choiceRT	choice_acc	topnum	topsize	botnum	botsize	cong	task_resp	taskRT	task_acc	RSI	CSI	altRep	E1
193	1	1	?	N	d	3356.28	NA	8	56	3	24	c	j	936.96	1	100	100	-1	0
193	1	2	?	P	f	250.42	NA	2	24	8	56	c	n	1104.04	1	1000	100	0	0
193	1	3	?	N	d	436.28	NA	9	24	3	56	i	j	1204.79	1	1000	100	0	0
193	1	4	?	P	f	1636.96	NA	8	56	4	24	c	j	2188.63	1	100	100	0	0
193	1	5	?	N	d	1704.85	NA	3	56	8	24	i	n	486.61	1	100	1000	0	0
193	1	6	?	P	f	2321.83	NA	4	24	9	56	c	n	903.37	1	100	100	0	0
193	1	7	?	N	d	836.74	NA	2	56	7	24	i	n	1287.3	1	100	100	0	0
193	1	8	?	P	f	670.14	NA	4	56	8	24	i	j	937.17	1	1000	1000	0	0
193	1	9	?	N	d	1487.82	NA	2	24	8	56	c	n	937.39	1	100	1000	0	0
193	1	10	?	P	f	503.25	NA	8	24	3	56	i	n	1471.41	1	1000	100	0	0
193	1	11	?	N	d	452.56	NA	9	24	4	56	i	j	1104.05	1	1000	100	0	0
193	1	12	?	P	f	433.99	NA	2	56	7	24	i	j	1036.99	1	1000	1000	0	0
193	1	13	?	N	d	1921.1	NA	3	24	9	56	c	n	786.77	1	100	1000	0	0
193	1	14	?	P	f	236.53	NA	2	24	7	56	c	n	453.55	1	1000	1000	0	0
193	1	15	?	N	d	67.11	NA	7	56	4	24	c	j	1037.44	1	1000	100	0	0
193	1	16	?	P	f	85.84	NA	2	56	8	24	i	j	670.12	1	1000	100	0	0
193	1	17	?	N	d	1320.36	NA	9	56	3	24	c	j	834.62	1	100	1000	0	0
193	1	18	?	P	f	603.1	NA	8	24	4	56	i	n	1170.63	1	1000	100	0	0
193	1	19	?	N	d	1087.1	NA	9	24	3	56	i	j	970.11	1	100	1000	0	0
193	1	20	?	P	f	218.59	NA	7	24	4	56	i	n	1321.26	1	1000	1000	0	0
193	1	21	?	N	d	217.33	NA	3	56	7	24	i	n	836.79	1	1000	100	0	0
193	1	22	?	P	f	702.86	NA	2	56	8	24	i	j	836.97	1	100	100	0	0
193	1	23	?	N	d	500.8	NA	7	56	3	24	c	j	970.78	1	1000	100	0	0
193	1	24	?	P	f	285.63	NA	4	24	7	56	c	n	402.83	1	1000	1000	0	0
193	1	25	?	N	d	1020.32	NA	2	24	7	56	c	n	937.08	1	100	100	0	0
193	1	26	?	P	f	253.05	NA	8	56	3	24	c	j	467.82	1	1000	1000	0	0
193	1	27	?	N	d	135.84	NA	8	24	2	56	i	j	986.79	1	1000	1000	0	0
193	1	28	?	P	f	1220.61	NA	3	24	7	56	c	n	453.67	1	100	1000	0	0
193	1	29	?	N	d	1020.58	NA	8	24	4	56	i	j	1020.01	1	100	100	0	0
193	1	30	?	P	f	970.72	NA	9	56	2	24	c	j	870.86	1	100	100	0	0
193	1	31	?	N	d	1054.17	NA	4	24	8	56	c	n	686.6	1	100	100	0	0
193	1	32	?	P	f	987.06	NA	2	24	8	56	c	n	736.83	1	100	1000	0	0
193	1	33	?	N	d	319.44	NA	7	56	4	24	c	j	1221.2	1	1000	100	0	0
193	1	34	?	P	f	1337.3	NA	2	56	8	24	i	j	1154.46	1	100	100	0	0
193	1	35	?	N	d	1504.26	NA	4	24	8	56	c	n	986.76	1	100	100	0	0
193	1	36	?	P	f	1103.99	NA	3	56	9	24	i	j	553.34	1	100	1000	0	0
193	1	37	?	N	d	920.37	NA	7	56	4	24	c	j	1152.2	1	100	100	0	0
193	1	38	?	P	f	236.25	NA	3	24	9	56	c	n	503.14	1	1000	1000	0	0
193	1	39	?	N	d	503.17	NA	9	56	4	24	c	j	653.13	1	100	1000	0	0
193	1	40	?	P	f	519.65	NA	8	24	2	56	i	n	1752.43	1	100	100	0	0
193	1	41	?	N	d	751.17	NA	4	56	9	24	i	n	753.28	1	1000	100	0	0
193	1	42	?	P	f	319.43	NA	2	24	9	56	c	n	969.68	1	1000	100	0	0
193	1	43	?	N	d	987.07	NA	7	24	4	56	i	j	1571.32	1	100	100	0	0
193	1	44	?	P	f	769.9	NA	2	56	8	24	i	j	1204.5	1	100	1000	0	0
193	1	45	?	N	d	218.65	NA	4	24	8	56	c	n	987.99	1	1000	100	0	0
193	1	46	?	P	f	1255.02	NA	9	24	3	56	i	n	753.92	1	100	1000	0	0
193	1	47	?	N	d	302.77	NA	7	24	2	56	i	j	786.81	1	1000	100	0	0
193	1	48	?	P	f	133.96	NA	7	24	4	56	i	n	1387.37	1	1000	1000	0	0
193	1	49	?	N	d	169.47	NA	7	56	2	24	c	j	486.25	1	1000	1000	0	0
193	1	50	?	P	f	336.3	NA	8	24	3	56	i	n	885.2	1	1000	1000	0	0
193	1	51	?	N	d	1354.27	NA	4	56	9	24	i	n	970.43	1	100	100	0	0
193	1	52	?	P	f	436.03	NA	9	56	3	24	c	j	786.83	1	100	1000	0	0
193	1	53	?	N	d	303.13	NA	8	56	4	24	c	j	519.5	1	1000	100	0	0
193	1	54	?	P	f	169.29	NA	3	24	9	56	c	n	1020.96	1	1000	100	0	0
193	1	55	?	N	d	253.22	NA	7	24	2	56	i	j	567.62	1	1000	1000	0	0
193	1	56	?	P	f	467.57	NA	7	24	3	56	i	n	803.94	1	100	1000	0	0
193	1	57	?	N	d	185.5	NA	2	24	9	56	c	n	569.78	1	1000	1000	0	0
193	1	58	?	P	f	1304.05	NA	4	56	8	24	i	j	1521.33	1	100	1000	0	0
193	1	59	?	N	d	1136.96	NA	9	56	2	24	c	j	1020.33	1	100	100	0	0
193	1	60	?	P	f	852.75	NA	9	56	4	24	c	j	936.83	1	1000	1000	0	0
193	1	61	?	N	d	402.62	NA	8	56	3	24	c	j	520.46	1	1000	1000	0	0
193	1	62	?	P	f	1420.89	NA	7	24	4	56	i	n	1120.53	1	100	100	0	0
193	1	63	?	N	d	1053.92	NA	2	56	8	24	i	n	537.12	1	100	1000	0	0
193	1	64	?	P	f	169.36	NA	9	24	4	56	i	n	686.81	1	1000	1000	0	0
193	1	65	?	N	d	1053.67	NA	7	56	2	24	c	j	1053.81	1	100	1000	0	0
193	2	1	?	N	d	319.67	NA	9	56	4	24	c	j	1103.4	1	1000	100	-1	0
193	2	2	?	P	f	1737.93	NA	3	24	9	56	c	n	1087.59	1	100	100	0	0
193	2	3	?	N	d	519.79	NA	7	24	4	56	i	j	786.86	1	1000	1000	0	0
193	2	4	?	P	f	386.36	NA	2	24	7	56	c	n	519.8	1	1000	1000	0	0
193	2	5	?	N	d	619.87	NA	3	56	7	24	i	n	901.36	1	100	1000	0	0
193	2	6	?	P	f	1120.39	NA	9	24	4	56	i	n	987.15	1	100	1000	0	0
193	2	7	?	N	d	417.19	NA	9	24	3	56	i	j	550.96	1	1000	1000	0	0
193	2	8	?	P	f	1171.38	NA	4	24	8	56	c	n	819.89	1	100	1000	0	0
193	2	9	?	N	d	251.96	NA	3	24	9	56	c	n	971.13	1	1000	100	0	0
193	2	10	?	P	f	1120.67	NA	4	56	7	24	i	j	1187.36	1	100	1000	0	0
193	2	11	?	N	d	704.1	NA	3	56	7	24	i	n	686.45	1	100	100	0	0
193	2	12	?	P	f	369.48	NA	8	56	4	24	c	j	686.85	1	100	1000	0	0
193	2	13	?	N	d	486.55	NA	9	56	3	24	c	j	519.8	1	1000	100	0	0
193	2	14	?	P	f	470.09	NA	8	56	4	24	c	j	1270.29	1	100	100	0	0
193	2	15	?	N	d	1604.57	NA	9	24	3	56	i	j	703.14	1	100	100	0	0
193	2	16	?	P	f	102.53	NA	2	24	7	56	c	n	469.42	1	1000	1000	0	0
193	2	17	?	N	d	418.93	NA	8	24	4	56	i	j	654.08	1	100	1000	0	0
193	2	18	?	P	f	636.47	NA	8	56	2	24	c	j	669.6	1	100	1000	0	0
193	2	19	?	N	d	569.84	NA	8	56	4	24	c	j	503.16	1	1000	1000	0	0
193	2	20	?	P	f	252.76	NA	3	56	9	24	i	j	1068.19	1	1000	100	0	0
193	2	21	?	N	d	1170.54	NA	2	56	9	24	i	n	1134.86	1	100	100	0	0
193	2	22	?	N	d	4090.37	NA	9	24	4	56	i	j	1203.79	1	1000	1000	0	0
193	2	23	?	P	f	252.69	NA	7	24	2	56	i	n	553.91	1	1000	1000	0	0
193	2	24	?	N	d	236.33	NA	3	24	7	56	c	n	753.14	1	1000	100	0	0
193	2	25	?	P	f	252.96	NA	2	56	9	24	i	j	1320.8	1	1000	100	0	0
193	2	26	?	N	d	419.5	NA	9	24	3	56	i	j	1921.03	1	1000	100	0	0
193	2	27	?	P	f	503.19	NA	4	56	8	24	i	j	520.08	1	100	1000	0	0
193	2	28	?	N	d	35.99	NA	2	24	9	56	c	n	436.8	1	1000	1000	0	0
193	2	29	?	N	d	302.82	NA	3	24	7	56	c	n	904.0	1	100	100	0	0
193	2	30	?	P	f	552.81	NA	8	24	4	56	i	n	1170.19	1	1000	100	0	0
193	2	31	?	P	f	1020.12	NA	9	24	3	56	i	n	653.63	1	100	100	0	0
193	2	32	?	N	d	586.57	NA	4	24	7	56	c	n	735.95	1	100	100	0	0
193	2	33	?	P	f	470.06	NA	8	24	2	56	i	n	1637.97	1	1000	1000	0	0
193	2	34	?	N	d	603.05	NA	8	56	4	24	c	j	386.21	1	100	1000	0	0
193	2	35	?	P	f	586.46	NA	8	56	3	24	c	j	1354.03	1	1000	1000	0	0
193	2	36	?	N	d	2.87	NA	4	56	7	24	i	n	736.42	1	1000	100	0	0
193	2	37	?	P	f	551.0	NA	8	56	2	24	c	j	452.78	1	100	100	0	0
193	2	38	?	P	f	1487.95	NA	3	56	8	24	i	j	803.18	1	1000	1000	0	0
193	2	39	?	N	d	252.34	NA	9	56	4	24	c	j	1054.07	1	1000	1000	0	0
193	2	40	?	N	d	385.49	NA	3	24	8	56	c	n	603.06	1	1000	100	0	0
193	2	41	?	P	f	302.29	NA	9	56	2	24	c	j	487.23	1	1000	100	0	0
193	2	42	?	N	d	352.94	NA	4	24	9	56	c	n	1037.59	1	1000	100	0	0
193	2	43	?	P	f	335.83	NA	9	24	2	56	i	n	436.49	1	1000	100	0	0
193	2	44	?	N	d	886.57	NA	3	56	9	24	i	n	1037.01	1	100	100	0	0
193	2	45	?	P	f	736.58	NA	9	24	4	56	i	n	653.79	1	100	1000	0	0
193	2	46	?	N	d	402.13	NA	9	56	2	24	c	j	837.1	1	1000	100	0	0
193	2	47	?	P	f	653.16	NA	7	56	4	24	c	j	904.08	1	1000	1000	0	0
193	2	48	?	N	d	986.82	NA	3	56	7	24	i	n	837.38	1	1000	100	0	0
193	2	49	?	P	f	703.4	NA	8	56	2	24	c	j	1117.93	1	100	100	0	0
193	2	50	?	N	d	619.51	NA	8	24	3	56	i	j	2305.36	1	1000	100	0	0
193	2	51	?	P	f	402.78	NA	8	56	4	24	c	j	652.73	1	1000	100	0	0
193	2	52	?	N	d	887.73	NA	2	24	7	56	c	n	536.92	1	100	1000	0	0
193	2	53	?	P	f	770.25	NA	4	56	7	24	i	j	1019.93	1	100	100	0	0
193	2	54	?	N	d	487.04	NA	7	56	2	24	c	j	1204.15	1	100	100	0	0
193	2	55	?	P	f	452.44	NA	3	24	9	56	c	n	653.03	1	1000	1000	0	0
193	2	56	?	N	d	1087.24	NA	9	24	2	56	i	j	504.08	1	100	1000	0	0
193	2	57	?	P	f	1003.62	NA	9	24	3	56	i	n	1086.61	1	100	1000	0	0
193	2	58	?	N	d	51.87	NA	4	56	8	24	i	n	502.98	1	1000	1000	0	0
193	2	59	?	P	f	786.71	NA	3	24	7	56	c	n	920.12	1	100	100	0	0
193	2	60	?	N	d	436.52	NA	2	56	8	24	i	n	453.29	1	1000	1000	0	0
193	2	61	?	P	f	469.12	NA	7	56	4	24	c	j	552.73	1	100	1000	0	0
193	2	62	?	N	d	503.5	NA	3	24	7	56	c	n	1038.15	1	100	1000	0	0
193	2	63	?	P	f	753.99	NA	4	24	8	56	c	n	469.55	1	100	1000	0	0
193	2	64	?	N	d	553.14	NA	9	24	3	56	i	j	801.87	1	100	100	0	0
193	2	65	?	P	f	386.39	NA	2	56	8	24	i	j	934.88	1	100	100	0	0
193	3	1	?	N	d	1053.74	NA	3	56	7	24	i	n	703.38	1	1000	100	-1	0
193	3	2	?	P	f	636.96	NA	4	56	8	24	i	j	719.89	1	100	1000	0	0
193	3	3	?	N	d	568.91	NA	8	56	3	24	c	j	787.27	1	1000	100	0	0
193	3	4	?	P	f	219.62	NA	2	56	7	24	i	j	419.78	1	1000	1000	0	0
193	3	5	?	N	d	603.65	NA	8	24	3	56	i	j	803.8	1	100	1000	0	0
193	3	6	?	P	f	35.78	NA	7	24	2	56	i	n	904.17	1	1000	100	0	0
193	3	7	?	N	d	486.77	NA	9	24	4	56	i	j	1086.85	1	1000	100	0	0
193	3	8	?	P	f	837.18	NA	7	24	3	56	i	n	870.53	1	100	100	0	0
193	3	9	?	N	d	937.9	NA	9	56	2	24	c	j	686.12	1	100	100	0	0
193	3	10	?	P	f	352.89	NA	4	24	7	56	c	n	419.59	1	1000	1000	0	0
193	3	11	?	N	d	569.3	NA	8	56	2	24	c	j	486.87	1	100	1000	0	0
193	3	12	?	P	f	1151.64	NA	8	24	4	56	i	n	937.29	1	100	100	0	0
193	3	13	?	N	d	202.43	NA	9	56	3	24	c	j	653.49	1	1000	100	0	0
193	3	14	?	P	f	754.24	NA	2	24	8	56	c	n	420.35	1	100	1000	0	0
193	3	15	?	N	d	285.96	NA	4	56	8	24	i	n	1821.11	1	1000	1000	0	0
193	3	16	?	P	f	769.16	NA	8	56	3	24	c	j	1104.4	1	1000	100	0	0
193	3	17	?	N	d	569.62	NA	4	56	9	24	i	n	1120.72	1	100	1000	0	0
193	3	18	?	P	f	435.89	NA	8	56	3	24	c	j	419.89	1	100	1000	0	0
193	3	19	?	N	d	68.53	NA	4	56	7	24	i	n	920.71	1	1000	1000	0	0
193	3	20	?	P	f	217.01	NA	7	56	2	24	c	j	536.04	1	1000	1000	0	0
193	3	21	?	N	d	1370.94	NA	4	24	9	56	c	n	1771.88	1	100	100	0	0
193	3	22	?	P	f	453.36	NA	3	56	7	24	i	j	470.13	1	100	1000	0	0
193	3	23	?	P	f	252.38	NA	9	56	4	24	c	j	486.63	1	1000	1000	0	0
193	3	24	?	N	d	1103.82	NA	2	56	7	24	i	n	687.13	1	100	1000	0	0
193	3	25	?	N	d	737.52	NA	3	56	9	24	i	n	836.95	1	100	100	0	0
193	3	26	?	N	d	686.34	NA	8	56	4	24	c	j	786.66	1	100	100	0	0
193	3	27	?	P	f	436.6	NA	9	56	2	24	c	j	1671.19	1	100	100	0	0
193	3	28	?	P	f	853.17	NA	3	24	7	56	c	n	603.05	1	100	100	0	0
193	3	29	?	N	d	1170.34	NA	4	24	9	56	c	n	870.54	1	1000	1000	0	0
193	3	30	?	N	d	469.64	NA	2	56	9	24	i	n	751.3	1	1000	1000	0	0
193	3	31	?	P	f	852.81	NA	9	24	3	56	i	n	1287.19	1	100	100	0	0
193	3	32	?	N	d	586.2	NA	2	24	8	56	c	n	602.59	1	1000	1000	0	0
193	3	33	?	P	f	19.28	NA	4	24	7	56	c	n	967.69	1	1000	100	0	0
193	3	34	?	N	d	269.36	NA	2	24	9	56	c	n	553.93	1	1000	1000	0	0
193	3	35	?	P	f	820.25	NA	8	56	3	24	c	j	604.0	1	100	100	0	0
193	3	36	?	N	d	603.08	NA	9	24	2	56	i	j	1137.66	1	100	1000	0	0
193	3	37	?	P	f	286.55	NA	4	56	7	24	i	j	1103.7	1	1000	100	0	0
193	3	38	?	N	d	853.57	NA	2	24	7	56	c	n	836.5	1	100	100	0	0
193	3	39	?	P	f	236.02	NA	4	24	7	56	c	n	768.17	1	1000	100	0	0
193	3	40	?	N	d	837.23	NA	7	24	3	56	i	j	569.9	1	1000	1000	0	0
193	3	41	?	P	f	252.24	NA	7	24	2	56	i	j	1303.43	0	1000	100	0	0
193	3	42	?	N	d	1437.22	NA	4	24	8	56	c	n	903.86	1	100	1000	0	1
193	3	43	?	P	f	235.78	NA	8	24	2	56	i	n	602.97	1	1000	1000	0	0
193	3	44	?	N	d	853.14	NA	3	56	9	24	i	n	1537.79	1	100	1000	0	0
193	3	45	?	N	d	1086.39	NA	7	24	2	56	i	j	970.25	1	1000	1000	0	0
193	3	46	?	P	f	1036.93	NA	3	24	8	56	c	n	804.22	1	100	1000	0	0
193	3	47	?	P	f	386.43	NA	4	56	8	24	i	j	918.99	1	1000	100	0	0
193	3	48	?	N	d	1103.54	NA	7	56	3	24	c	j	787.61	1	100	1000	0	0
193	3	49	?	P	f	252.36	NA	2	24	9	56	c	n	1070.61	1	1000	100	0	0
193	3	50	?	N	d	402.99	NA	7	56	3	24	c	j	901.46	1	1000	100	0	0
193	3	51	?	P	f	835.97	NA	4	56	8	24	i	j	1053.98	1	100	100	0	0
193	3	52	?	N	d	2.68	NA	9	56	2	24	c	j	703.32	1	1000	1000	0	0
193	3	53	?	P	f	486.02	NA	4	56	8	24	i	j	751.73	1	1000	1000	0	0
193	3	54	?	N	d	1270.75	NA	3	24	7	56	c	n	386.88	1	100	1000	0	0
193	3	55	?	P	f	703.55	NA	9	24	2	56	i	n	920.79	1	100	1000	0	0
193	3	56	?	N	d	920.07	NA	3	24	9	56	c	n	636.68	1	100	100	0	0
193	3	57	?	P	f	319.49	NA	2	24	9	56	c	n	569.29	1	1000	100	0	0
193	3	58	?	N	d	287.12	NA	4	56	7	24	i	n	1037.11	1	1000	100	0	0
193	3	59	?	P	f	753.46	NA	3	56	8	24	i	j	970.31	1	100	100	0	0
193	3	60	?	N	d	235.99	NA	8	56	2	24	c	j	603.23	1	1000	1000	0	0
193	3	61	?	P	f	402.84	NA	8	24	3	56	i	j	904.01	0	1000	100	0	0
193	3	62	?	N	d	703.23	NA	8	24	2	56	i	j	870.1	1	100	100	0	1
193	3	63	?	P	f	436.58	NA	9	56	4	24	c	j	903.9	1	100	1000	0	0
193	3	64	?	N	d	453.46	NA	9	24	3	56	i	n	886.88	0	100	100	0	0
193	3	65	?	P	f	418.67	NA	4	56	7	24	i	j	1421.53	1	1000	100	0	1
193	4	1	?	N	d	968.03	NA	7	24	2	56	i	j	652.93	1	1000	100	-1	0
193	4	2	?	P	f	586.54	NA	8	24	4	56	i	n	453.72	1	100	1000	0	0
193	4	3	?	N	d	186.67	NA	7	56	2	24	c	j	770.45	1	100	1000	0	0
193	4	4	?	P	f	286.18	NA	8	24	3	56	i	n	787.21	1	1000	100	0	0
193	4	5	?	N	d	769.25	NA	2	24	8	56	c	n	719.12	1	100	1000	0	0
193	4	6	?	P	f	837.12	NA	9	24	4	56	i	n	1237.75	1	100	1000	0	0
193	4	7	?	N	d	887.69	NA	2	56	8	24	i	n	1303.79	1	100	100	0	0
193	4	8	?	P	f	202.97	NA	9	56	3	24	c	j	636.75	1	1000	100	0	0
193	4	9	?	N	d	1053.54	NA	2	24	8	56	c	n	684.96	1	100	1000	0	0
193	4	10	?	P	f	152.89	NA	4	24	7	56	c	n	485.52	1	1000	1000	0	0
193	4	11	?	N	d	1137.46	NA	9	56	2	24	c	j	787.01	1	100	100	0	0
193	4	12	?	P	f	252.56	NA	4	56	7	24	i	j	653.6	1	1000	1000	0	0
193	4	13	?	N	d	520.34	NA	2	24	7	56	c	n	419.53	1	100	1000	0	0
193	4	14	?	P	f	169.59	NA	3	56	9	24	i	j	837.52	1	1000	100	0	0
193	4	15	?	N	d	186.19	NA	8	56	2	24	c	j	436.24	1	1000	1000	0	0
193	4	16	?	P	f	1454.0	NA	4	56	7	24	i	j	586.57	1	100	1000	0	0
193	4	17	?	N	d	19.0	NA	3	56	7	24	i	n	802.98	1	1000	100	0	0
193	4	18	?	P	f	202.72	NA	8	56	2	24	c	j	519.82	1	1000	100	0	0
193	4	19	?	P	f	686.81	NA	4	56	7	24	i	j	553.62	1	100	1000	0	0
193	4	20	?	N	d	469.76	NA	2	24	9	56	c	n	553.28	1	100	100	0	0
193	4	21	?	P	f	386.39	NA	9	24	3	56	i	n	1103.54	1	100	100	0	0
193	4	22	?	N	d	236.67	NA	9	56	4	24	c	j	653.45	1	100	100	0	0
193	4	23	?	P	f	319.89	NA	9	56	3	24	c	j	603.69	1	1000	100	0	0
193	4	24	?	N	d	336.25	NA	2	24	7	56	c	n	436.38	1	1000	1000	0	0
193	4	25	?	P	f	186.28	NA	4	56	7	24	i	j	1036.35	1	1000	100	0	0
193	4	26	?	N	d	403.13	NA	7	24	3	56	i	j	786.68	1	1000	100	0	0
193	4	27	?	P	f	235.72	NA	9	56	2	24	c	j	453.76	1	1000	1000	0	0
193	4	28	?	N	d	352.34	NA	4	24	8	56	c	n	536.42	1	1000	100	0	0
193	4	29	?	P	f	452.72	NA	7	24	3	56	i	n	1137.81	1	100	1000	0	0
193	4	30	?	N	d	903.05	NA	9	24	2	56	i	j	2121.93	1	100	1000	0	0
193	4	31	?	P	f	635.93	NA	7	56	4	24	c	j	486.89	1	100	1000	0	0
193	4	32	?	N	d	286.55	NA	9	24	2	56	i	j	570.1	1	1000	1000	0	0
193	4	33	?	P	f	402.27	NA	4	56	7	24	i	j	619.94	1	1000	100	0	0
193	4	34	?	N	d	1571.22	NA	8	56	3	24	c	j	503.11	1	100	1000	0	0
193	4	35	?	P	f	570.01	NA	7	24	2	56	i	n	737.23	1	100	100	0	0
193	4	36	?	N	d	219.27	NA	4	24	7	56	c	n	536.79	1	1000	1000	0	0
193	4	37	?	P	f	335.88	NA	8	24	2	56	i	n	920.68	1	1000	1000	0	0
193	4	38	?	N	d	185.46	NA	3	24	8	56	c	n	1554.34	1	1000	100	0	0
193	4	39	?	P	f	252.57	NA	8	24	2	56	i	n	753.81	1	1000	1000	0	0
193	4	40	?	N	d	954.21	NA	3	24	8	56	c	n	570.05	1	100	100	0	0
193	4	41	?	P	f	301.76	NA	8	56	2	24	c	j	553.17	1	1000	1000	0	0
193	4	42	?	N	d	668.98	NA	4	24	8	56	c	n	753.62	1	1000	100	0	0
193	4	43	?	P	f	736.67	NA	2	56	9	24	i	j	653.44	1	100	100	0	0
193	4	44	?	N	d	834.55	NA	7	56	3	24	c	j	1738.43	1	100	100	0	0
193	4	45	?	P	f	436.05	NA	9	24	2	56	i	n	436.57	1	100	1000	0	0
193	4	46	?	N	d	118.25	NA	4	56	7	24	i	n	853.56	1	1000	100	0	0
193	4	47	?	P	f	819.29	NA	2	56	9	24	i	j	620.03	1	100	100	0	0
193	4	48	?	N	d	1203.91	NA	4	56	7	24	i	n	819.89	1	1000	1000	0	0
193	4	49	?	N	d	219.58	NA	7	56	2	24	c	j	903.56	1	1000	1000	0	0
193	4	50	?	P	f	553.32	NA	3	24	9	56	c	n	553.43	1	100	100	0	0
193	4	51	?	P	f	586.51	NA	2	56	8	24	i	j	1053.56	1	100	1000	0	0
193	4	52	?	N	d	252.36	NA	3	24	8	56	c	n	1437.3	1	1000	100	0	0
193	4	53	?	P	f	669.79	NA	8	24	2	56	i	n	1351.97	1	100	100	0	0
193	4	54	?	N	d	719.6	NA	3	24	7	56	c	n	536.46	1	100	1000	0	0
193	4	55	?	P	f	269.08	NA	4	56	9	24	i	j	586.66	1	1000	1000	0	0
193	4	56	?	N	d	536.05	NA	8	24	2	56	i	j	737.22	1	100	100	0	0
193	4	57	?	P	f	334.52	NA	3	56	9	24	i	j	503.82	1	1000	1000	0	0
193	4	58	?	N	d	236.15	NA	4	56	8	24	i	n	819.5	1	1000	100	0	0
193	4	59	?	P	f	903.65	NA	8	56	3	24	c	j	653.89	1	100	1000	0	0
193	4	60	?	N	d	536.89	NA	8	24	4	56	i	j	869.87	1	100	100	0	0
193	4	61	?	P	f	284.32	NA	2	24	7	56	c	n	1053.58	1	1000	1000	0	0
193	4	62	?	N	d	219.16	NA	3	56	7	24	i	n	1553.63	1	1000	1000	0	0
193	4	63	?	P	f	570.27	NA	8	56	2	24	c	j	971.0	1	100	100	0	0
193	4	64	?	N	d	669.97	NA	3	24	9	56	c	n	637.35	1	100	100	0	0
193	4	65	?	P	f	269.25	NA	9	56	2	24	c	j	753.11	1	1000	100	0	0
193	5	1	?	N	d	937.17	NA	2	24	9	56	c	n	567.3	1	100	100	-1	0
193	5	2	?	P	f	436.4	NA	3	56	9	24	i	j	519.98	1	100	100	0	0
193	5	3	?	N	d	517.63	NA	2	56	7	24	i	n	753.25	1	1000	1000	0	0
193	5	4	?	P	f	287.09	NA	3	56	7	24	i	j	469.8	1	1000	100	0	0
193	5	5	?	N	d	751.51	NA	4	56	9	24	i	n	585.89	1	1000	100	0	0
193	5	6	?	P	f	303.09	NA	8	56	3	24	c	j	470.15	1	1000	100	0	0
193	5	7	?	N	d	886.79	NA	2	56	8	24	i	n	937.47	1	100	1000	0	0
193	5	8	?	P	f	853.59	NA	4	56	9	24	i	j	1184.99	1	100	1000	0	0
193	5	9	?	N	d	553.12	NA	8	24	3	56	i	j	853.32	1	1000	100	0	0
193	5	10	?	P	f	402.94	NA	4	24	9	56	c	n	402.93	1	1000	1000	0	0
193	5	11	?	N	d	336.96	NA	8	56	3	24	c	j	970.49	1	1000	1000	0	0
193	5	12	?	P	f	268.72	NA	4	24	7	56	c	n	820.28	1	1000	1000	0	0
193	5	13	?	N	d	219.18	NA	3	24	8	56	c	n	703.75	1	1000	100	0	0
193	5	14	?	P	f	252.65	NA	7	24	4	56	i	n	586.42	1	1000	100	0	0
193	5	15	?	N	d	986.74	NA	3	24	7	56	c	n	1070.82	1	100	1000	0	0
193	5	16	?	P	f	252.55	NA	2	24	7	56	c	n	786.67	1	1000	1000	0	0
193	5	17	?	N	d	569.28	NA	3	24	9	56	c	n	469.93	1	100	1000	0	0
193	5	18	?	P	f	469.84	NA	7	24	4	56	i	n	1020.24	1	100	100	0	0
193	5	19	?	N	d	285.32	NA	9	24	2	56	i	j	769.68	1	1000	1000	0	0
193	5	20	?	P	f	1020.31	NA	3	56	9	24	i	j	570.35	1	100	1000	0	0
193	5	21	?	N	d	469.28	NA	8	56	4	24	c	j	920.85	1	100	1000	0	0
193	5	22	?	P	f	469.71	NA	8	24	2	56	i	j	1053.96	0	1000	100	0	0
193	5	23	?	N	d	486.32	NA	4	24	9	56	c	n	469.91	1	1000	1000	0	1
193	5	24	?	P	f	417.26	NA	9	24	2	56	i	n	1070.46	1	100	100	0	0
193	5	25	?	N	d	269.89	NA	7	56	3	24	c	j	987.1	1	1000	100	0	0
193	5	26	?	P	f	767.95	NA	8	56	2	24	c	j	936.68	1	100	100	0	0
193	5	27	?	N	d	402.62	NA	7	56	4	24	c	j	553.63	1	1000	1000	0	0
193	5	28	?	P	f	219.15	NA	2	56	7	24	i	j	420.13	1	1000	1000	0	0
193	5	29	?	N	d	786.83	NA	9	24	3	56	i	n	603.1	0	100	100	0	0
193	5	30	?	P	f	719.86	NA	7	24	4	56	i	n	551.42	1	100	100	0	1
193	5	31	?	N	d	453.24	NA	9	56	3	24	c	j	553.44	1	100	1000	0	0
193	5	32	?	P	f	285.66	NA	2	56	7	24	i	j	987.12	1	1000	1000	0	0
193	5	33	?	N	d	353.07	NA	4	56	9	24	i	n	1387.04	1	1000	1000	0	0
193	5	34	?	P	f	536.65	NA	3	24	8	56	c	n	536.75	1	100	100	0	0
193	5	35	?	N	d	386.17	NA	4	56	7	24	i	n	869.77	1	100	1000	0	0
193	5	36	?	P	f	319.96	NA	2	56	9	24	i	j	436.8	1	100	1000	0	0
193	5	37	?	N	d	400.89	NA	9	56	3	24	c	j	854.04	1	100	100	0	0
193	5	38	?	P	f	236.38	NA	4	24	9	56	c	n	620.13	1	100	1000	0	0
193	5	39	?	N	d	335.87	NA	2	56	9	24	i	n	1019.62	1	100	1000	0	0
193	5	40	?	P	f	420.17	NA	7	24	3	56	i	n	837.06	1	100	100	0	0
193	5	41	?	N	d	302.37	NA	2	24	8	56	c	n	453.2	1	1000	100	0	0
193	5	42	?	P	f	503.28	NA	7	56	4	24	c	n	536.9	0	100	100	0	0
193	5	43	?	N	d	469.73	NA	9	24	2	56	i	j	602.89	1	1000	1000	0	1
193	5	44	?	P	f	433.99	NA	7	56	3	24	c	j	603.24	1	100	1000	0	0
193	5	45	?	N	d	335.3	NA	8	24	4	56	i	j	920.23	1	1000	100	0	0
193	5	46	?	P	f	469.25	NA	9	24	2	56	i	n	803.65	1	1000	1000	0	0
193	5	47	?	N	d	335.44	NA	9	56	4	24	c	j	953.62	1	1000	100	0	0
193	5	48	?	P	f	751.03	NA	8	56	3	24	c	j	718.16	1	100	1000	0	0
193	5	49	?	N	d	503.46	NA	4	24	9	56	c	n	753.17	1	1000	100	0	0
193	5	50	?	P	f	719.71	NA	3	24	9	56	c	n	853.27	1	100	100	0	0
193	5	51	?	N	d	569.61	NA	2	24	7	56	c	n	1187.94	1	100	1000	0	0
193	5	52	?	P	f	185.39	NA	8	24	3	56	i	n	520.4	1	1000	100	0	0
193	5	53	?	N	d	18.96	NA	7	56	4	24	c	j	670.69	1	1000	100	0	0
193	5	54	?	P	f	436.23	NA	3	24	9	56	c	n	1054.16	1	100	100	0	0
193	5	55	?	N	d	335.95	NA	9	24	4	56	i	j	601.1	1	1000	100	0	0
193	5	56	?	P	f	1220.64	NA	8	56	2	24	c	j	752.67	1	1000	1000	0	0
193	5	57	?	N	d	1621.01	NA	8	24	4	56	i	j	917.83	1	100	100	0	0
193	5	58	?	P	f	484.27	NA	2	56	9	24	i	j	769.32	1	100	100	0	0
193	5	59	?	N	d	353.06	NA	8	56	4	24	c	j	436.95	1	1000	1000	0	0
193	5	60	?	P	f	786.46	NA	7	24	2	56	i	n	1053.56	1	100	1000	0	0
193	5	61	?	N	d	536.37	NA	3	24	8	56	c	n	803.18	1	100	100	0	0
193	5	62	?	P	f	435.91	NA	8	56	4	24	c	j	853.99	1	100	100	0	0
193	5	63	?	N	d	319.84	NA	2	24	9	56	c	n	620.05	1	1000	100	0	0
193	5	64	?	P	f	252.88	NA	7	24	3	56	i	n	586.94	1	1000	1000	0	0
193	5	65	?	N	d	403.07	NA	7	24	4	56	i	j	984.39	1	100	1000	0	0
193	6	1	?	N	d	603.06	NA	3	24	7	56	c	n	1287.86	1	1000	100	-1	0
193	6	2	?	N	d	384.14	NA	2	24	8	56	c	n	469.82	1	100	100	0	0
193	6	3	?	P	f	302.08	NA	9	24	4	56	i	n	584.58	1	1000	1000	0	0
193	6	4	?	P	f	302.87	NA	2	56	8	24	i	j	753.41	1	1000	100	0	0
193	6	5	?	N	d	453.09	NA	9	24	3	56	i	j	586.94	1	100	1000	0	0
193	6	6	?	N	d	1153.66	NA	7	56	2	24	c	j	519.56	1	100	1000	0	0
193	6	7	?	P	f	219.77	NA	7	24	3	56	i	n	769.56	1	1000	100	0	0
193	6	8	?	P	f	485.98	NA	2	24	8	56	c	n	369.89	1	100	1000	0	0
193	6	9	?	N	d	853.72	NA	7	56	3	24	c	j	720.79	1	100	1000	0	0
193	6	10	?	P	f	19.15	NA	8	56	2	24	c	j	1187.64	1	1000	100	0	0
193	6	11	?	N	d	586.1	NA	7	24	3	56	i	n	469.67	0	100	1000	0	0
193	6	12	?	P	f	383.88	NA	7	56	4	24	c	j	686.01	1	1000	100	0	1
193	6	13	?	N	d	286.05	NA	2	24	7	56	c	n	1237.96	1	1000	1000	0	0
193	6	14	?	P	f	586.62	NA	9	24	4	56	i	n	403.4	1	1000	1000	0	0
193	6	15	?	N	d	252.72	NA	9	56	2	24	c	j	1001.41	1	1000	1000	0	0
193	6	16	?	P	f	519.6	NA	4	24	8	56	c	n	737.33	1	100	100	0	0
193	6	17	?	N	d	637.33	NA	2	24	8	56	c	n	469.2	1	100	1000	0	0
193	6	18	?	P	f	502.56	NA	9	24	3	56	i	n	903.26	1	100	100	0	0
193	6	19	?	N	d	68.86	NA	7	56	2	24	c	j	853.13	1	1000	100	0	0
193	6	20	?	P	f	570.6	NA	7	24	4	56	i	n	784.64	1	100	1000	0	0
193	6	21	?	N	d	452.96	NA	9	24	3	56	i	j	987.04	1	100	100	0	0
193	6	22	?	P	f	235.95	NA	7	56	4	24	c	j	3023.15	1	1000	1000	0	0
193	6	23	?	N	d	786.91	NA	9	56	2	24	c	j	936.99	1	100	100	0	0
193	6	24	?	P	f	268.91	NA	3	56	9	24	i	j	1120.35	1	1000	1000	0	0
193	6	25	?	N	d	417.26	NA	7	24	2	56	i	j	1304.46	1	1000	100	0	0
193	6	26	?	P	f	318.95	NA	4	24	7	56	c	n	1404.54	1	1000	100	0	0
193	6	27	?	N	d	903.65	NA	9	24	2	56	i	j	1454.2	1	100	100	0	0
193	6	28	?	P	f	185.69	NA	9	24	3	56	i	n	602.84	1	1000	100	0	0
193	6	29	?	N	d	202.46	NA	4	56	9	24	i	n	568.45	1	1000	100	0	0
193	6	30	?	P	f	102.61	NA	8	56	3	24	c	j	820.54	1	1000	100	0	0
193	6	31	?	N	d	1053.49	NA	9	56	4	24	c	j	570.2	1	100	100	0	0
193	6	32	?	P	f	452.57	NA	8	24	2	56	i	n	636.8	1	100	1000	0	0
193	6	33	?	N	d	569.73	NA	7	24	4	56	i	j	1187.53	1	100	100	0	0
193	6	34	?	P	f	319.25	NA	3	56	9	24	i	j	2105.29	1	1000	1000	0	0
193	6	35	?	N	d	352.86	NA	2	56	7	24	i	n	970.68	1	1000	1000	0	0
193	6	36	?	P	f	519.58	NA	4	56	7	24	i	j	1137.08	1	100	100	0	0
193	6	37	?	N	d	617.78	NA	2	56	9	24	i	n	869.35	1	100	100	0	0
193	6	38	?	P	f	385.68	NA	4	24	7	56	c	n	870.64	1	100	100	0	0
193	6	39	?	N	d	285.85	NA	7	56	2	24	c	j	703.89	1	1000	1000	0	0
193	6	40	?	P	f	185.58	NA	4	56	8	24	i	j	419.44	1	1000	1000	0	0
193	6	41	?	N	d	519.86	NA	7	24	2	56	i	j	969.88	1	100	1000	0	0
193	6	42	?	P	f	469.01	NA	3	24	9	56	c	n	585.93	1	100	100	0	0
193	6	43	?	N	d	419.65	NA	2	24	9	56	c	n	803.42	1	1000	1000	0	0
193	6	44	?	P	f	586.62	NA	8	24	3	56	i	n	803.5	1	100	1000	0	0
193	6	45	?	N	d	252.96	NA	2	24	8	56	c	n	603.08	1	1000	100	0	0
193	6	46	?	P	f	269.92	NA	3	56	9	24	i	j	470.16	1	1000	1000	0	0
193	6	47	?	N	d	453.52	NA	7	56	2	24	c	j	1020.74	1	100	100	0	0
193	6	48	?	P	f	136.03	NA	7	24	4	56	i	n	484.08	1	1000	1000	0	0
193	6	49	?	N	d	252.29	NA	2	24	7	56	c	n	804.25	1	1000	100	0	0
193	6	50	?	P	f	552.16	NA	8	24	3	56	i	n	787.28	1	100	100	0	0
193	6	51	?	N	d	552.93	NA	8	56	4	24	c	j	970.34	1	100	1000	0	0
193	6	52	?	P	f	185.86	NA	3	24	7	56	c	n	1137.6	1	1000	100	0	0
193	6	53	?	N	d	469.82	NA	8	24	4	56	i	j	970.51	1	1000	100	0	0
193	6	54	?	P	f	269.35	NA	8	24	3	56	i	n	970.28	1	1000	100	0	0
193	6	55	?	N	d	536.75	NA	9	24	4	56	i	j	1120.25	1	100	1000	0	0
193	6	56	?	P	f	352.88	NA	9	56	3	24	c	j	586.82	1	1000	1000	0	0
193	6	57	?	P	f	953.43	NA	4	24	8	56	c	n	619.85	1	100	1000	0	0
193	6	58	?	N	d	319.03	NA	8	24	2	56	i	j	901.6	1	1000	100	0	0
193	6	59	?	N	d	436.45	NA	3	24	8	56	c	n	986.98	1	100	1000	0	0
193	6	60	?	P	f	586.55	NA	9	56	2	24	c	j	936.99	1	100	1000	0	0
193	6	61	?	N	d	385.98	NA	3	24	7	56	c	n	570.5	1	1000	1000	0	0
193	6	62	?	P	f	452.69	NA	7	24	4	56	i	n	553.0	1	100	100	0	0
193	6	63	?	N	d	503.24	NA	9	56	3	24	c	j	802.91	1	100	100	0	0
193	6	64	?	P	f	269.2	NA	2	24	7	56	c	n	419.14	1	1000	1000	0	0
193	6	65	?	N	d	486.65	NA	4	56	9	24	i	n	1353.71	1	100	1000	0	0
