subj	block	trial	task_cue	task	choice_resp	choiceRT	choice_acc	topnum	topsize	botnum	botsize	cong	task_resp	taskRT	task_acc	RSI	CSI	altRep	E1
198	1	1	P	P	d	623.81	1	4	24	9	56	c	n	863.22	1	100	100	-1	0
198	1	2	N	N	f	559.55	0	2	24	7	56	c	n	517.57	1	100	100	1	0
198	1	3	P	P	f	564.63	1	8	24	3	56	i	n	880.48	1	100	1000	1	0
198	1	4	N	N	f	593.1	0	2	24	9	56	c	n	494.51	1	1000	1000	1	0
198	1	5	P	P	d	862.04	1	3	24	8	56	c	n	563.77	1	100	100	1	0
198	1	6	N	N	f	446.8	0	4	24	7	56	c	n	712.88	1	1000	100	1	0
198	1	7	N	N	f	637.14	0	9	56	2	24	c	j	466.21	1	1000	100	0	0
198	1	8	N	N	f	449.37	0	8	24	3	56	i	j	635.63	1	1000	1000	0	0
198	1	9	N	N	f	628.48	0	8	24	4	56	i	j	856.79	1	100	100	0	0
198	1	10	N	N	f	462.46	0	3	24	9	56	c	n	553.41	1	100	1000	0	0
198	1	11	N	N	f	483.04	0	2	56	7	24	i	n	781.58	1	100	1000	0	0
198	1	12	P	P	d	470.04	1	3	56	7	24	i	j	634.23	1	1000	1000	1	0
198	1	13	N	N	d	1037.09	0	4	56	9	24	i	n	1139.62	1	100	1000	1	0
198	1	14	P	P	d	1227.08	1	3	56	9	24	i	j	1226.21	1	100	100	1	0
198	1	15	N	N	f	1006.01	0	9	56	4	24	c	j	444.6	1	100	1000	1	0
198	1	16	N	N	f	545.66	0	3	24	7	56	c	n	598.97	1	1000	100	0	0
198	1	17	N	N	f	470.97	0	4	56	8	24	i	n	760.53	1	1000	100	0	0
198	1	18	P	P	d	1130.02	1	9	24	2	56	i	n	655.11	1	100	100	1	0
198	1	19	P	P	d	608.2	1	7	56	4	24	c	j	470.0	1	100	1000	0	0
198	1	20	P	P	d	718.64	1	9	24	2	56	i	n	463.73	1	100	1000	0	0
198	1	21	P	P	d	481.07	1	3	24	9	56	c	n	622.54	1	1000	1000	0	0
198	1	22	P	P	d	620.29	1	2	56	9	24	i	j	791.33	1	100	1000	0	0
198	1	23	P	P	d	621.78	1	8	24	4	56	i	n	613.36	1	100	100	0	0
198	1	24	N	N	f	424.42	0	3	56	7	24	i	n	516.84	1	1000	100	1	0
198	1	25	P	P	f	427.4	1	2	56	8	24	i	j	1057.7	1	100	1000	1	0
198	1	26	P	P	d	519.79	1	4	56	8	24	i	j	509.67	1	1000	1000	0	0
198	1	27	N	N	f	747.58	0	9	56	2	24	c	j	701.0	1	100	100	1	0
198	1	28	P	P	d	513.07	1	3	56	9	24	i	j	869.86	1	1000	100	1	0
198	1	29	P	P	d	1270.08	1	4	24	8	56	c	n	430.28	1	100	1000	0	0
198	1	30	P	P	d	560.19	1	9	24	2	56	i	n	561.89	1	1000	100	0	0
198	1	31	P	P	d	581.18	1	3	56	8	24	i	j	556.09	1	100	100	0	0
198	1	32	N	N	f	1001.97	0	7	24	4	56	i	j	767.47	1	1000	100	1	0
198	1	33	P	P	d	484.07	1	2	24	8	56	c	n	530.14	1	1000	1000	1	0
198	1	34	N	N	f	492.25	0	3	56	7	24	i	j	909.36	0	1000	1000	1	0
198	1	35	N	N	f	622.9	0	9	24	4	56	i	j	692.92	1	1000	100	0	1
198	1	36	N	N	f	387.45	0	2	56	8	24	i	n	488.14	1	1000	1000	0	0
198	1	37	P	P	d	628.95	1	3	24	8	56	c	n	441.54	1	1000	100	1	0
198	1	38	P	P	d	363.09	1	9	24	2	56	i	n	643.22	1	1000	1000	0	0
198	1	39	P	P	d	656.87	1	9	56	4	24	c	j	727.86	1	1000	100	0	0
198	1	40	N	N	f	804.75	0	8	56	2	24	c	j	443.4	1	1000	1000	1	0
198	1	41	P	P	d	443.65	1	8	24	4	56	i	n	663.74	1	1000	1000	1	0
198	1	42	N	N	f	559.77	0	9	24	2	56	i	j	628.24	1	1000	1000	1	0
198	1	43	N	N	f	423.31	0	9	24	4	56	i	j	390.01	1	100	1000	0	0
198	1	44	P	P	d	834.07	1	7	56	2	24	c	j	925.18	1	100	100	1	0
198	1	45	N	N	f	802.39	0	3	56	8	24	i	j	722.93	0	100	100	1	0
198	1	46	N	N	d	417.0	0	4	24	7	56	c	n	974.41	1	1000	1000	0	1
198	1	47	N	N	f	1285.25	0	2	56	8	24	i	n	704.66	1	100	100	0	0
198	1	48	P	P	d	562.64	1	8	56	3	24	c	j	361.07	1	1000	1000	1	0
198	1	49	P	P	d	433.41	1	4	24	8	56	c	n	941.37	1	1000	100	0	0
198	1	50	P	P	d	565.17	1	3	24	9	56	c	n	557.02	1	100	100	0	0
198	1	51	P	P	d	451.19	1	2	56	8	24	i	j	373.54	1	1000	100	0	0
198	1	52	N	N	f	474.38	0	7	56	3	24	c	j	414.58	1	1000	100	1	0
198	1	53	P	P	d	628.05	1	7	56	2	24	c	j	675.84	1	1000	100	1	0
198	1	54	N	N	f	758.43	0	4	24	8	56	c	n	638.35	1	100	1000	1	0
198	1	55	N	N	f	450.28	0	8	56	3	24	c	j	749.24	1	100	1000	0	0
198	1	56	N	N	f	404.38	0	8	56	2	24	c	j	387.65	1	1000	1000	0	0
198	1	57	P	P	f	427.74	1	8	56	3	24	c	j	764.68	1	100	1000	1	0
198	1	58	N	N	f	1349.31	0	9	24	4	56	i	j	566.41	1	100	1000	1	0
198	1	59	P	P	d	507.42	1	3	24	9	56	c	n	671.18	1	100	1000	1	0
198	1	60	N	N	f	775.78	0	9	24	2	56	i	j	573.31	1	100	100	1	0
198	1	61	N	N	d	440.88	0	4	24	8	56	c	n	1774.69	1	100	100	0	0
198	1	62	N	N	f	554.6	0	8	56	2	24	c	j	747.95	1	100	100	0	0
198	1	63	P	P	d	672.63	1	7	24	4	56	i	n	783.31	1	1000	100	1	0
198	1	64	P	P	d	404.42	1	8	56	3	24	c	j	534.02	1	1000	1000	0	0
198	1	65	P	P	d	507.94	1	7	56	4	24	c	j	661.44	1	100	100	0	0
198	2	1	P	P	d	748.47	1	8	24	3	56	i	n	420.57	1	1000	1000	-1	0
198	2	2	P	P	d	550.55	1	2	56	7	24	i	j	491.08	1	100	100	0	0
198	2	3	N	N	f	396.63	0	9	24	3	56	i	j	485.93	1	1000	1000	1	0
198	2	4	P	P	d	616.71	1	2	56	8	24	i	j	657.58	1	1000	1000	1	0
198	2	5	P	P	d	385.06	1	8	24	3	56	i	n	599.1	1	1000	100	0	0
198	2	6	N	N	f	821.84	0	7	56	2	24	c	j	500.73	1	100	100	1	0
198	2	7	N	N	f	451.24	0	3	56	9	24	i	n	507.49	1	1000	1000	0	0
198	2	8	N	N	f	407.09	0	8	24	4	56	i	j	694.69	1	1000	100	0	0
198	2	9	N	N	f	491.0	0	3	56	9	24	i	n	571.93	1	100	100	0	0
198	2	10	N	N	f	550.64	0	2	24	8	56	c	n	456.52	1	1000	1000	0	0
198	2	11	N	N	f	1058.31	0	4	56	7	24	i	n	942.9	1	1000	100	0	0
198	2	12	N	N	f	724.36	0	8	56	2	24	c	j	593.93	1	1000	100	0	0
198	2	13	P	P	d	1164.13	1	4	24	9	56	c	n	555.01	1	100	100	1	0
198	2	14	P	P	d	821.91	1	8	56	3	24	c	j	343.25	1	100	1000	0	0
198	2	15	N	N	f	578.86	0	4	24	8	56	c	n	463.14	1	1000	100	1	0
198	2	16	N	N	f	638.19	0	9	56	3	24	c	j	691.59	1	100	1000	0	0
198	2	17	P	P	d	791.33	1	8	56	2	24	c	j	583.17	1	100	100	1	0
198	2	18	N	N	f	799.36	0	9	24	3	56	i	j	747.84	1	100	100	1	0
198	2	19	P	P	d	640.9	1	2	56	9	24	i	n	739.87	0	100	100	1	0
198	2	20	P	P	f	494.94	1	7	56	3	24	c	j	1093.07	1	1000	1000	0	1
198	2	21	P	P	d	577.62	1	2	24	7	56	c	n	450.31	1	1000	100	0	0
198	2	22	P	P	d	676.6	1	4	56	7	24	i	j	459.79	1	100	1000	0	0
198	2	23	P	P	d	489.08	1	7	24	2	56	i	n	387.81	1	1000	1000	0	0
198	2	24	N	N	f	697.92	0	3	56	8	24	i	n	567.8	1	100	100	1	0
198	2	25	P	P	d	587.16	1	9	24	4	56	i	n	724.92	1	100	100	1	0
198	2	26	N	N	f	508.84	0	7	24	2	56	i	j	561.09	1	1000	100	1	0
198	2	27	P	P	d	479.13	1	7	24	3	56	i	n	778.01	1	100	1000	1	0
198	2	28	P	P	d	490.49	1	2	24	9	56	c	n	468.69	1	100	1000	0	0
198	2	29	N	N	d	514.72	0	9	56	4	24	c	j	645.21	1	1000	100	1	0
198	2	30	P	P	d	1435.23	1	9	24	2	56	i	n	509.07	1	1000	100	1	0
198	2	31	N	N	f	521.42	0	4	56	8	24	i	n	591.15	1	1000	100	1	0
198	2	32	P	P	d	666.0	1	8	56	2	24	c	j	443.87	1	1000	1000	1	0
198	2	33	P	P	f	557.28	1	8	56	4	24	c	j	885.9	1	100	100	0	0
198	2	34	N	N	f	931.16	0	2	56	9	24	i	j	621.42	0	1000	1000	1	0
198	2	35	N	N	f	1473.75	0	3	56	8	24	i	n	569.57	1	100	1000	0	1
198	2	36	P	P	d	661.11	1	2	24	8	56	c	n	562.34	1	1000	1000	1	0
198	2	37	P	P	d	605.0	1	4	24	8	56	c	n	601.82	1	100	100	0	0
198	2	38	N	N	f	671.01	0	8	56	3	24	c	j	466.52	1	1000	1000	1	0
198	2	39	P	P	d	765.13	1	9	24	2	56	i	n	825.07	1	1000	1000	1	0
198	2	40	N	N	f	588.9	0	3	24	8	56	c	n	568.83	1	100	100	1	0
198	2	41	N	N	f	684.09	0	7	56	2	24	c	j	545.64	1	1000	1000	0	0
198	2	42	N	N	f	615.42	0	8	24	4	56	i	j	667.85	1	100	1000	0	0
198	2	43	N	N	f	368.09	0	8	24	3	56	i	j	464.46	1	100	100	0	0
198	2	44	N	N	f	392.49	0	4	24	8	56	c	n	786.68	1	100	100	0	0
198	2	45	P	P	d	617.64	1	7	56	3	24	c	j	467.61	1	100	1000	1	0
198	2	46	P	P	d	378.63	1	2	56	9	24	i	n	620.98	0	1000	100	0	0
198	2	47	P	P	d	426.66	1	4	56	9	24	i	j	606.26	1	1000	1000	0	1
198	2	48	N	N	f	969.23	0	8	24	2	56	i	j	553.61	1	100	1000	1	0
198	2	49	N	N	f	573.48	0	9	56	3	24	c	j	660.76	1	100	100	0	0
198	2	50	N	N	f	308.52	0	4	24	7	56	c	n	539.09	1	1000	100	0	0
198	2	51	P	P	d	709.47	1	2	24	8	56	c	n	493.47	1	1000	100	1	0
198	2	52	P	P	d	614.1	1	9	24	4	56	i	n	475.25	1	100	1000	0	0
198	2	53	N	N	f	646.03	0	2	56	7	24	i	j	1070.16	0	100	1000	1	0
198	2	54	P	P	d	1303.21	1	4	56	7	24	i	j	1071.82	1	100	1000	1	1
198	2	55	N	N	f	460.92	0	2	24	9	56	c	n	495.02	1	1000	1000	1	0
198	2	56	P	P	d	478.84	1	7	56	3	24	c	j	497.1	1	1000	100	1	0
198	2	57	P	P	d	739.53	1	2	24	8	56	c	n	354.89	1	1000	1000	0	0
198	2	58	P	P	d	653.55	1	9	24	3	56	i	n	499.56	1	100	100	0	0
198	2	59	P	P	d	392.98	1	7	56	2	24	c	j	630.13	1	1000	100	0	0
198	2	60	N	N	f	774.37	0	9	56	3	24	c	j	412.89	1	100	1000	1	0
198	2	61	N	N	f	366.8	0	9	24	2	56	i	j	445.05	1	1000	1000	0	0
198	2	62	P	P	d	513.5	1	3	56	8	24	i	j	396.9	1	1000	100	1	0
198	2	63	N	N	f	605.88	0	2	24	7	56	c	n	500.69	1	100	1000	1	0
198	2	64	N	N	f	773.1	0	4	24	9	56	c	n	512.45	1	100	1000	0	0
198	2	65	P	P	d	559.59	1	2	24	9	56	c	n	470.98	1	100	1000	1	0
198	3	1	N	N	f	755.32	0	2	24	9	56	c	n	494.8	1	100	100	-1	0
198	3	2	N	N	f	490.53	0	3	56	7	24	i	j	626.45	0	1000	1000	0	0
198	3	3	P	P	d	476.25	1	8	24	4	56	i	n	730.52	1	1000	1000	1	1
198	3	4	N	N	f	538.01	0	8	56	2	24	c	j	432.31	1	100	1000	1	0
198	3	5	P	P	d	550.1	1	8	24	3	56	i	n	637.4	1	1000	100	1	0
198	3	6	P	P	f	550.28	1	2	24	9	56	c	n	602.69	1	1000	100	0	0
198	3	7	P	P	d	965.74	1	7	24	4	56	i	n	590.15	1	100	100	0	0
198	3	8	P	P	d	485.58	1	2	24	7	56	c	n	609.79	1	1000	1000	0	0
198	3	9	P	P	d	409.56	1	8	56	4	24	c	j	472.76	1	1000	100	0	0
198	3	10	P	P	d	429.01	1	9	56	2	24	c	j	429.87	1	100	100	0	0
198	3	11	N	N	f	503.17	0	7	24	4	56	i	j	869.5	1	1000	1000	1	0
198	3	12	N	N	f	526.84	0	3	24	9	56	c	n	505.3	1	100	1000	0	0
198	3	13	P	P	d	676.36	1	4	24	7	56	c	n	438.11	1	100	100	1	0
198	3	14	P	P	d	461.63	1	9	56	3	24	c	j	440.13	1	100	1000	0	0
198	3	15	N	N	f	350.47	0	4	24	7	56	c	n	512.0	1	1000	1000	1	0
198	3	16	N	N	f	344.69	0	3	56	7	24	i	n	553.15	1	1000	100	0	0
198	3	17	P	P	f	415.18	1	7	56	4	24	c	j	577.58	1	100	1000	1	0
198	3	18	P	P	d	353.81	1	9	24	3	56	i	n	568.45	1	1000	100	0	0
198	3	19	N	N	f	604.33	0	7	24	4	56	i	j	758.83	1	1000	100	1	0
198	3	20	N	N	f	801.29	0	8	24	2	56	i	j	541.84	1	1000	1000	0	0
198	3	21	P	P	d	363.71	1	4	24	7	56	c	n	498.28	1	1000	1000	1	0
198	3	22	N	N	f	683.87	0	2	24	7	56	c	n	581.4	1	1000	100	1	0
198	3	23	N	N	f	616.89	0	3	24	7	56	c	n	491.4	1	100	100	0	0
198	3	24	N	N	f	329.08	0	4	24	9	56	c	n	654.44	1	1000	1000	0	0
198	3	25	N	N	f	505.91	0	9	24	3	56	i	j	681.79	1	100	100	0	0
198	3	26	P	P	d	347.07	1	2	56	7	24	i	j	578.53	1	1000	100	1	0
198	3	27	N	N	f	692.23	0	3	56	9	24	i	n	594.02	1	1000	1000	1	0
198	3	28	P	P	f	411.6	1	4	56	9	24	i	j	958.41	1	100	100	1	0
198	3	29	P	P	d	1251.52	1	3	56	8	24	i	j	1048.51	1	100	100	0	0
198	3	30	P	P	d	414.89	1	9	56	2	24	c	j	386.3	1	1000	1000	0	0
198	3	31	N	N	f	1134.52	0	7	24	4	56	i	n	564.71	0	100	100	1	0
198	3	32	N	N	f	392.54	0	2	24	7	56	c	n	550.29	1	1000	100	0	1
198	3	33	P	P	d	641.48	1	8	56	4	24	c	j	471.11	1	1000	100	1	0
198	3	34	P	P	d	539.55	1	2	56	7	24	i	j	591.52	1	100	1000	0	0
198	3	35	P	P	d	734.75	1	3	24	8	56	c	n	609.77	1	100	1000	0	0
198	3	36	P	P	d	487.86	1	4	56	7	24	i	j	522.54	1	1000	1000	0	0
198	3	37	N	N	f	664.46	0	8	56	3	24	c	j	579.14	1	100	100	1	0
198	3	38	P	P	d	570.46	1	9	56	4	24	c	j	578.86	1	100	100	1	0
198	3	39	N	N	f	559.17	0	2	56	9	24	i	n	1067.58	1	100	100	1	0
198	3	40	N	N	f	518.83	0	7	56	4	24	c	j	588.12	1	100	100	0	0
198	3	41	P	P	f	416.84	1	2	24	8	56	c	n	681.02	1	100	1000	1	0
198	3	42	N	N	f	661.8	0	4	56	9	24	i	n	1069.99	1	100	1000	1	0
198	3	43	P	P	d	505.24	1	3	56	8	24	i	j	793.11	1	100	1000	1	0
198	3	44	P	P	d	487.33	1	2	56	9	24	i	j	545.61	1	1000	100	0	0
198	3	45	N	N	f	433.9	0	8	56	4	24	c	j	507.55	1	1000	1000	1	0
198	3	46	P	P	d	801.48	1	3	56	9	24	i	j	794.51	1	1000	1000	1	0
198	3	47	P	P	d	803.76	1	8	24	2	56	i	j	690.32	0	1000	1000	0	0
198	3	48	N	N	f	553.16	0	9	56	4	24	c	j	555.46	1	1000	100	1	1
198	3	49	N	N	f	382.38	0	9	56	3	24	c	j	535.28	1	1000	100	0	0
198	3	50	N	N	d	684.23	0	4	56	8	24	i	j	579.9	0	100	1000	0	0
198	3	51	P	P	d	795.36	1	7	56	2	24	c	j	788.02	1	1000	1000	1	1
198	3	52	N	N	f	810.4	0	8	24	3	56	i	n	572.89	0	100	1000	1	0
198	3	53	N	N	f	1260.99	0	9	24	2	56	i	j	562.0	1	100	1000	0	1
198	3	54	N	N	f	571.05	0	9	56	4	24	c	j	712.71	1	100	1000	0	0
198	3	55	N	N	f	266.65	0	8	56	3	24	c	j	568.03	1	1000	1000	0	0
198	3	56	P	P	f	559.3	1	9	24	2	56	i	n	1056.61	1	100	100	1	0
198	3	57	N	N	f	575.38	0	3	24	8	56	c	n	774.31	1	100	1000	1	0
198	3	58	P	P	d	564.97	1	4	24	9	56	c	n	624.16	1	1000	100	1	0
198	3	59	P	P	d	632.54	1	2	24	9	56	c	n	613.08	1	100	100	0	0
198	3	60	P	P	d	537.41	1	9	24	3	56	i	j	769.35	0	100	1000	0	0
198	3	61	N	N	f	593.94	0	2	56	7	24	i	n	652.66	1	1000	100	1	1
198	3	62	N	N	f	436.49	0	3	56	7	24	i	n	612.05	1	100	100	0	0
198	3	63	P	P	f	390.11	1	8	24	4	56	i	j	840.24	0	100	1000	1	0
198	3	64	N	N	f	418.84	0	3	24	9	56	c	n	621.48	1	100	100	1	1
198	3	65	N	N	f	404.46	0	9	24	2	56	i	j	602.25	1	1000	100	0	0
198	4	1	N	N	f	532.06	0	4	24	9	56	c	n	589.82	1	1000	100	-1	0
198	4	2	P	P	d	542.24	1	2	24	7	56	c	n	425.55	1	100	1000	1	0
198	4	3	P	P	d	623.4	1	7	56	3	24	c	j	389.95	1	100	1000	0	0
198	4	4	P	P	d	339.36	1	4	56	8	24	i	j	805.4	1	100	1000	0	0
198	4	5	P	P	d	394.36	1	7	56	3	24	c	j	496.12	1	100	100	0	0
198	4	6	N	N	d	436.76	0	2	24	9	56	c	n	577.16	1	100	1000	1	0
198	4	7	N	N	f	443.99	0	9	24	4	56	i	j	584.66	1	1000	1000	0	0
198	4	8	P	P	f	333.05	1	2	56	7	24	i	j	1234.35	1	1000	100	1	0
198	4	9	P	P	d	765.8	1	3	24	8	56	c	n	567.27	1	100	1000	0	0
198	4	10	N	N	f	754.68	0	2	24	7	56	c	n	589.55	1	1000	1000	1	0
198	4	11	P	P	d	418.27	1	3	56	8	24	i	j	1070.46	1	100	1000	1	0
198	4	12	N	N	f	482.0	0	8	24	2	56	i	j	624.18	1	1000	100	1	0
198	4	13	N	N	f	361.57	0	3	24	7	56	c	n	609.38	1	1000	100	0	0
198	4	14	P	P	f	330.65	1	4	56	9	24	i	j	531.68	1	1000	1000	1	0
198	4	15	P	P	d	695.76	1	3	24	9	56	c	n	610.19	1	1000	100	0	0
198	4	16	P	P	d	477.27	1	9	56	4	24	c	j	529.57	1	1000	100	0	0
198	4	17	P	P	d	560.47	1	8	24	3	56	i	n	550.6	1	100	100	0	0
198	4	18	N	N	f	700.06	0	7	24	4	56	i	j	1017.56	1	100	1000	1	0
198	4	19	N	N	f	529.71	0	7	56	3	24	c	j	678.62	1	100	100	0	0
198	4	20	P	P	d	840.6	1	8	24	4	56	i	n	446.44	1	100	100	1	0
198	4	21	P	P	d	333.81	1	2	24	8	56	c	n	490.21	1	1000	1000	0	0
198	4	22	P	P	d	440.94	1	4	56	9	24	i	j	514.82	1	1000	100	0	0
198	4	23	N	N	d	404.77	0	3	56	8	24	i	n	691.36	1	100	1000	1	0
198	4	24	N	N	f	361.85	0	7	56	4	24	c	j	1026.53	1	1000	100	0	0
198	4	25	N	N	f	409.37	0	7	24	3	56	i	n	495.14	0	100	100	0	0
198	4	26	N	N	f	737.96	0	4	56	7	24	i	n	656.96	1	1000	1000	0	1
198	4	27	P	P	f	407.67	1	7	56	3	24	c	j	1010.37	1	100	100	1	0
198	4	28	P	P	d	826.29	1	4	56	7	24	i	n	798.7	0	100	100	0	0
198	4	29	N	N	f	764.3	0	8	56	2	24	c	j	576.87	1	100	1000	1	1
198	4	30	P	P	d	691.06	1	4	24	9	56	c	n	425.03	1	1000	100	1	0
198	4	31	P	P	d	599.41	1	2	56	7	24	i	j	859.99	1	1000	1000	0	0
198	4	32	P	P	d	443.77	1	3	24	8	56	c	n	732.06	1	100	100	0	0
198	4	33	P	P	d	550.09	1	7	24	2	56	i	n	749.35	1	1000	100	0	0
198	4	34	P	P	d	562.47	1	9	24	4	56	i	n	474.48	1	100	1000	0	0
198	4	35	N	N	f	665.77	0	2	24	7	56	c	n	568.2	1	1000	100	1	0
198	4	36	P	P	d	650.66	1	4	56	7	24	i	j	523.62	1	100	100	1	0
198	4	37	P	P	d	564.3	1	7	24	3	56	i	n	813.75	1	1000	1000	0	0
198	4	38	N	N	f	581.93	0	9	24	2	56	i	j	453.82	1	1000	1000	1	0
198	4	39	N	N	f	539.25	0	7	24	3	56	i	j	467.44	1	100	1000	0	0
198	4	40	N	N	f	323.69	0	4	56	8	24	i	n	569.59	1	100	1000	0	0
198	4	41	N	N	f	458.79	0	3	24	8	56	c	n	537.96	1	1000	1000	0	0
198	4	42	P	P	d	642.36	1	7	56	4	24	c	j	481.59	1	100	1000	1	0
198	4	43	N	N	f	606.01	0	8	56	3	24	c	j	535.46	1	1000	100	1	0
198	4	44	N	N	f	616.1	0	4	56	9	24	i	j	624.14	0	1000	100	0	0
198	4	45	P	P	d	1408.23	1	8	56	2	24	c	j	1020.32	1	1000	1000	1	1
198	4	46	N	N	f	561.19	0	4	24	8	56	c	n	699.09	1	100	100	1	0
198	4	47	P	P	d	585.17	1	8	24	2	56	i	n	698.97	1	100	1000	1	0
198	4	48	N	N	f	394.48	0	8	24	4	56	i	n	653.39	0	100	100	1	0
198	4	49	N	N	f	1011.09	0	8	56	3	24	c	j	539.81	1	100	1000	0	1
198	4	50	N	N	f	440.48	0	4	24	8	56	c	n	896.71	1	100	1000	0	0
198	4	51	P	P	d	773.23	1	8	24	3	56	i	n	433.56	1	1000	1000	1	0
198	4	52	N	N	f	687.47	0	9	56	4	24	c	j	714.48	1	100	100	1	0
198	4	53	P	P	d	864.04	1	9	24	2	56	i	n	588.34	1	1000	100	1	0
198	4	54	N	N	f	315.53	0	4	56	9	24	i	n	814.23	1	1000	1000	1	0
198	4	55	P	P	d	481.08	1	3	24	8	56	c	n	768.33	1	1000	1000	1	0
198	4	56	P	P	d	379.16	1	8	56	2	24	c	j	733.23	1	1000	1000	0	0
198	4	57	N	N	f	889.19	0	3	56	7	24	i	n	512.72	1	100	100	1	0
198	4	58	N	N	f	345.19	0	7	56	4	24	c	j	518.08	1	1000	1000	0	0
198	4	59	P	P	d	650.55	1	2	24	9	56	c	n	535.38	1	100	100	1	0
198	4	60	N	N	f	480.59	0	4	56	7	24	i	n	521.58	1	1000	100	1	0
198	4	61	N	N	f	708.84	0	3	24	9	56	c	n	572.74	1	100	100	0	0
198	4	62	N	N	f	844.42	0	9	24	2	56	i	n	642.51	0	1000	100	0	0
198	4	63	P	P	d	678.27	1	7	56	4	24	c	j	587.03	1	1000	100	1	1
198	4	64	N	N	f	503.85	0	7	56	2	24	c	j	454.93	1	1000	1000	1	0
198	4	65	N	N	f	427.49	0	3	56	8	24	i	n	530.0	1	100	100	0	0
198	5	1	N	N	f	905.77	0	4	24	9	56	c	n	927.94	1	100	1000	-1	0
198	5	2	P	P	d	872.82	1	8	56	2	24	c	j	400.13	1	100	1000	1	0
198	5	3	N	N	f	530.58	0	3	56	7	24	i	n	498.28	1	100	100	1	0
198	5	4	N	N	f	528.24	0	4	56	7	24	i	n	462.85	1	100	100	0	0
198	5	5	P	P	d	605.26	1	2	24	8	56	c	n	511.58	1	100	1000	1	0
198	5	6	N	N	f	546.62	0	4	56	8	24	i	n	531.2	1	1000	100	1	0
198	5	7	N	N	f	470.7	0	2	24	7	56	c	n	612.56	1	1000	1000	0	0
198	5	8	P	P	d	581.06	1	9	24	4	56	i	n	488.09	1	100	100	1	0
198	5	9	P	P	f	348.63	1	9	56	2	24	c	j	792.24	1	1000	1000	0	0
198	5	10	N	N	f	1005.13	0	3	24	7	56	c	n	1018.51	1	100	100	1	0
198	5	11	P	P	d	547.16	1	7	56	2	24	c	j	431.41	1	1000	100	1	0
198	5	12	N	N	f	572.94	0	3	24	7	56	c	n	524.23	1	100	1000	1	0
198	5	13	P	P	d	587.84	1	8	24	2	56	i	n	454.52	1	1000	1000	1	0
198	5	14	P	P	d	494.77	1	3	24	9	56	c	n	428.64	1	100	1000	0	0
198	5	15	P	P	d	558.7	1	9	24	4	56	i	n	583.85	1	100	100	0	0
198	5	16	N	N	f	530.48	0	8	24	2	56	i	j	643.88	1	100	1000	1	0
198	5	17	N	N	f	466.45	0	8	56	3	24	c	j	467.1	1	1000	1000	0	0
198	5	18	N	N	f	349.95	0	7	24	4	56	i	j	613.99	1	100	1000	0	0
198	5	19	P	P	d	401.4	1	3	24	9	56	c	n	587.95	1	1000	100	1	0
198	5	20	N	N	f	697.73	0	8	56	2	24	c	j	398.14	1	100	100	1	0
198	5	21	P	P	d	551.28	1	3	56	8	24	i	j	467.51	1	100	1000	1	0
198	5	22	N	N	f	402.38	0	8	56	2	24	c	j	339.76	1	100	1000	1	0
198	5	23	P	P	d	575.66	1	9	56	3	24	c	j	481.44	1	1000	1000	1	0
198	5	24	P	P	f	370.9	1	4	24	8	56	c	n	702.86	1	100	100	0	0
198	5	25	P	P	d	785.36	1	3	56	7	24	i	j	665.93	1	100	1000	0	0
198	5	26	N	N	f	664.09	0	2	56	9	24	i	n	778.93	1	100	1000	1	0
198	5	27	N	N	f	344.55	0	3	56	8	24	i	n	551.49	1	1000	1000	0	0
198	5	28	P	P	f	537.9	1	2	24	7	56	c	n	748.2	1	100	100	1	0
198	5	29	N	N	f	549.56	0	3	56	7	24	i	n	972.23	1	1000	1000	1	0
198	5	30	P	P	d	462.48	1	9	24	4	56	i	n	1002.14	1	100	1000	1	0
198	5	31	N	N	f	581.99	0	7	56	2	24	c	j	635.37	1	1000	100	1	0
198	5	32	N	N	d	626.56	0	4	24	8	56	c	n	551.1	1	1000	100	0	0
198	5	33	P	P	d	620.1	1	2	56	7	24	i	j	621.89	1	1000	1000	1	0
198	5	34	N	N	f	472.49	0	4	24	9	56	c	n	434.85	1	1000	100	1	0
198	5	35	N	N	f	434.22	0	7	24	3	56	i	n	542.7	0	1000	100	0	0
198	5	36	P	P	d	770.43	1	7	56	2	24	c	j	488.74	1	100	100	1	1
198	5	37	N	N	f	607.79	0	7	24	3	56	i	n	672.93	0	100	100	1	0
198	5	38	N	N	f	688.3	0	9	24	4	56	i	j	613.59	1	100	100	0	1
198	5	39	P	P	d	639.63	1	2	56	7	24	i	j	861.81	1	100	100	1	0
198	5	40	P	P	d	625.4	1	4	24	7	56	c	n	730.17	1	1000	100	0	0
198	5	41	N	N	f	311.35	0	8	56	2	24	c	j	394.02	1	1000	1000	1	0
198	5	42	N	N	f	725.64	0	8	24	4	56	i	j	785.12	1	1000	1000	0	0
198	5	43	N	N	d	727.87	0	2	56	9	24	i	n	1530.74	1	1000	100	0	0
198	5	44	N	N	f	492.83	0	8	56	3	24	c	j	797.11	1	100	1000	0	0
198	5	45	N	N	f	953.17	0	7	56	4	24	c	j	690.57	1	1000	100	0	0
198	5	46	P	P	f	440.26	1	9	24	2	56	i	n	605.25	1	1000	100	1	0
198	5	47	P	P	d	641.82	1	7	56	3	24	c	j	538.24	1	100	100	0	0
198	5	48	P	P	d	393.22	1	7	24	2	56	i	n	686.15	1	1000	100	0	0
198	5	49	P	P	d	436.22	1	8	56	3	24	c	j	657.19	1	1000	100	0	0
198	5	50	P	P	d	620.89	1	2	56	7	24	i	j	669.34	1	100	100	0	0
198	5	51	N	N	f	571.61	0	3	24	9	56	c	n	589.45	1	1000	1000	1	0
198	5	52	N	N	f	429.0	0	4	24	9	56	c	n	879.23	1	100	1000	0	0
198	5	53	P	P	f	694.07	1	3	24	8	56	c	n	493.76	1	1000	1000	1	0
198	5	54	P	P	d	635.99	1	2	56	8	24	i	j	946.96	1	1000	1000	0	0
198	5	55	P	P	d	729.3	1	7	24	3	56	i	n	733.3	1	100	1000	0	0
198	5	56	P	P	d	426.7	1	2	56	9	24	i	j	630.44	1	1000	100	0	0
198	5	57	P	P	d	549.76	1	7	56	3	24	c	j	657.18	1	100	1000	0	0
198	5	58	P	P	d	137.08	1	2	24	8	56	c	n	657.34	1	1000	1000	0	0
198	5	59	P	P	d	518.75	1	9	24	4	56	i	n	610.36	1	1000	1000	0	0
198	5	60	N	N	f	488.12	0	9	24	3	56	i	j	826.94	1	1000	1000	1	0
198	5	61	N	N	f	467.15	0	4	56	7	24	i	n	726.43	1	100	1000	0	0
198	5	62	N	N	f	308.45	0	2	24	8	56	c	n	662.21	1	100	100	0	0
198	5	63	P	P	d	671.4	1	3	56	9	24	i	j	1141.91	1	1000	100	1	0
198	5	64	N	N	f	554.1	0	9	24	4	56	i	n	600.71	0	1000	100	1	0
198	5	65	N	N	f	598.14	0	7	56	2	24	c	j	646.56	1	100	100	0	1
198	6	1	N	N	f	643.05	0	9	56	2	24	c	j	629.59	1	100	100	-1	0
198	6	2	N	N	f	627.62	0	4	56	8	24	i	n	495.13	1	100	1000	0	0
198	6	3	N	N	f	535.15	0	9	24	2	56	i	j	542.1	1	1000	1000	0	0
198	6	4	P	P	d	712.22	1	3	56	8	24	i	n	765.95	0	1000	1000	1	0
198	6	5	P	P	d	483.31	1	2	24	7	56	c	n	557.96	1	1000	100	0	1
198	6	6	P	P	d	462.9	1	9	56	4	24	c	j	351.7	1	1000	1000	0	0
198	6	7	P	P	d	333.73	1	8	56	2	24	c	j	558.7	1	1000	100	0	0
198	6	8	P	P	d	487.98	1	3	56	7	24	i	j	534.7	1	100	100	0	0
198	6	9	N	N	f	1526.63	0	7	24	2	56	i	j	548.44	1	1000	1000	1	0
198	6	10	N	N	f	540.01	0	9	24	3	56	i	j	479.92	1	100	100	0	0
198	6	11	N	N	f	379.17	0	8	56	4	24	c	j	543.34	1	1000	100	0	0
198	6	12	N	N	f	522.88	0	2	24	7	56	c	n	558.83	1	100	100	0	0
198	6	13	N	N	f	408.35	0	4	56	8	24	i	n	774.47	1	1000	1000	0	0
198	6	14	P	P	d	439.94	1	2	24	9	56	c	n	481.37	1	1000	100	1	0
198	6	15	N	N	f	607.1	0	3	24	9	56	c	n	828.83	1	100	100	1	0
198	6	16	N	N	f	490.91	0	7	56	2	24	c	j	582.53	1	100	1000	0	0
198	6	17	P	P	f	460.42	1	9	24	4	56	i	n	709.1	1	1000	100	1	0
198	6	18	N	N	f	543.82	0	8	56	3	24	c	j	831.91	1	1000	1000	1	0
198	6	19	P	P	d	448.1	1	8	56	2	24	c	j	442.68	1	1000	1000	1	0
198	6	20	P	P	d	465.42	1	7	24	4	56	i	n	364.8	1	1000	1000	0	0
198	6	21	N	N	d	393.52	0	2	56	9	24	i	j	821.48	0	100	100	1	0
198	6	22	N	N	f	764.2	0	9	24	3	56	i	j	667.23	1	1000	100	0	1
198	6	23	N	N	f	698.01	0	9	56	4	24	c	j	780.2	1	1000	1000	0	0
198	6	24	N	N	f	560.29	0	8	24	3	56	i	j	663.04	1	100	1000	0	0
198	6	25	P	P	d	784.26	1	2	56	9	24	i	j	884.57	1	1000	100	1	0
198	6	26	P	P	d	711.14	1	9	24	4	56	i	n	664.16	1	100	100	0	0
198	6	27	N	N	f	627.92	0	7	24	2	56	i	j	619.27	1	1000	100	1	0
198	6	28	P	P	d	706.99	1	3	56	8	24	i	j	1403.58	1	100	100	1	0
198	6	29	P	P	d	582.44	1	4	56	8	24	i	j	466.76	1	100	1000	0	0
198	6	30	N	N	f	337.67	0	8	56	3	24	c	j	568.13	1	1000	100	1	0
198	6	31	P	P	d	604.83	1	2	56	8	24	i	j	477.63	1	100	1000	1	0
198	6	32	P	P	d	568.37	1	7	24	4	56	i	n	542.83	1	1000	100	0	0
198	6	33	N	N	f	498.77	0	2	56	7	24	i	n	758.83	1	1000	1000	1	0
198	6	34	P	P	d	656.27	1	9	24	4	56	i	n	806.76	1	100	100	1	0
198	6	35	P	P	d	462.48	1	2	56	8	24	i	j	699.82	1	1000	100	0	0
198	6	36	P	P	d	484.56	1	4	24	9	56	c	n	518.45	1	100	1000	0	0
198	6	37	P	P	f	447.96	1	3	24	9	56	c	n	634.43	1	100	100	0	0
198	6	38	N	N	f	547.94	0	9	56	4	24	c	j	836.13	1	100	1000	1	0
198	6	39	N	N	f	346.08	0	2	56	7	24	i	n	576.55	1	1000	100	0	0
198	6	40	N	N	f	376.65	0	7	56	4	24	c	j	720.98	1	100	100	0	0
198	6	41	P	P	d	697.22	1	2	24	8	56	c	n	520.81	1	100	100	1	0
198	6	42	N	N	f	618.25	0	7	24	4	56	i	j	701.27	1	100	100	1	0
198	6	43	P	P	d	619.02	1	2	24	7	56	c	n	667.72	1	1000	1000	1	0
198	6	44	P	P	d	529.22	1	8	24	3	56	i	n	621.23	1	100	1000	0	0
198	6	45	P	P	d	618.8	1	7	56	2	24	c	j	678.2	1	100	100	0	0
198	6	46	P	P	d	456.56	1	8	56	4	24	c	j	468.83	1	100	1000	0	0
198	6	47	N	N	f	380.57	0	2	56	8	24	i	n	823.93	1	100	1000	1	0
198	6	48	P	P	d	519.42	1	7	24	4	56	i	j	542.68	0	1000	1000	1	0
198	6	49	P	P	d	308.31	1	3	56	8	24	i	j	728.67	1	1000	1000	0	1
198	6	50	N	N	f	951.51	0	2	24	9	56	c	n	553.0	1	1000	1000	1	0
198	6	51	N	N	f	437.46	0	4	56	7	24	i	n	1264.75	1	100	100	0	0
198	6	52	N	N	f	278.89	0	3	24	7	56	c	n	620.14	1	1000	1000	0	0
198	6	53	P	P	d	302.71	1	7	56	4	24	c	j	476.56	1	1000	100	1	0
198	6	54	P	P	d	364.26	1	3	24	9	56	c	n	329.89	1	1000	1000	0	0
198	6	55	N	N	d	380.6	0	7	56	4	24	c	j	769.18	1	100	100	1	0
198	6	56	N	N	d	537.27	0	3	24	9	56	c	n	724.0	1	100	1000	0	0
198	6	57	N	N	f	441.51	0	2	24	7	56	c	n	526.44	1	1000	100	0	0
198	6	58	P	P	d	579.81	1	7	24	3	56	i	n	688.2	1	100	1000	1	0
198	6	59	N	N	f	765.7	0	2	24	9	56	c	n	419.86	1	100	1000	1	0
198	6	60	P	P	d	1282.96	1	4	24	8	56	c	n	487.74	1	100	1000	1	0
198	6	61	N	N	f	572.5	0	3	24	8	56	c	n	626.19	1	1000	100	1	0
198	6	62	P	P	d	600.43	1	8	56	2	24	c	j	467.45	1	100	1000	1	0
198	6	63	N	N	f	424.8	0	8	24	4	56	i	j	615.73	1	100	1000	1	0
198	6	64	P	P	d	708.43	1	8	56	2	24	c	j	718.72	1	100	100	1	0
198	6	65	N	N	f	975.43	0	3	56	7	24	i	n	751.7	1	1000	100	1	0
