subj	block	trial	task_cue	task	choice_resp	choiceRT	choice_acc	topnum	topsize	botnum	botsize	cong	task_resp	taskRT	task_acc	RSI	CSI	altRep	E1
199	1	1	?	N	d	451.01	NA	8	56	2	24	c	j	1724.18	1	1000	100	-1	0
199	1	2	?	P	f	394.64	NA	9	56	3	24	c	j	416.94	1	1000	1000	0	0
199	1	3	?	N	d	631.2	NA	9	56	4	24	c	j	477.26	1	100	100	0	0
199	1	4	?	P	f	330.65	NA	9	56	2	24	c	j	725.21	1	1000	100	0	0
199	1	5	?	N	d	1746.99	NA	9	56	3	24	c	j	451.64	1	100	1000	0	0
199	1	6	?	P	f	1538.36	NA	2	56	9	24	i	j	432.06	1	100	1000	0	0
199	1	7	?	N	d	1552.6	NA	3	56	7	24	i	n	868.48	1	100	1000	0	0
199	1	8	?	P	f	164.55	NA	2	24	8	56	c	n	510.43	1	1000	1000	0	0
199	1	9	?	N	d	917.16	NA	4	24	9	56	c	n	546.51	1	100	100	0	0
199	1	10	?	P	f	-139.52	NA	7	56	3	24	c	j	1032.78	1	1000	1000	0	0
199	1	11	?	N	d	832.83	NA	2	24	8	56	c	n	611.82	1	100	1000	0	0
199	1	12	?	P	f	490.19	NA	3	56	8	24	i	j	2190.68	1	1000	100	0	0
199	1	13	?	N	d	912.08	NA	9	56	4	24	c	j	552.95	1	100	1000	0	0
199	1	14	?	P	f	289.87	NA	3	56	9	24	i	n	783.61	0	1000	1000	0	0
199	1	15	?	N	d	337.29	NA	9	56	4	24	c	j	1781.59	1	1000	1000	0	1
199	1	16	?	P	f	988.44	NA	7	24	3	56	i	n	702.45	1	100	1000	0	0
199	1	17	?	N	d	965.32	NA	2	56	9	24	i	n	882.38	1	100	100	0	0
199	1	18	?	P	f	358.76	NA	8	24	4	56	i	n	403.39	1	1000	1000	0	0
199	1	19	?	N	d	324.39	NA	3	24	9	56	c	n	650.97	1	1000	100	0	0
199	1	20	?	P	f	349.1	NA	8	24	4	56	i	j	657.69	0	1000	1000	0	0
199	1	21	?	N	d	440.93	NA	2	24	9	56	c	n	661.67	1	1000	100	0	1
199	1	22	?	P	f	343.87	NA	3	24	7	56	c	n	393.67	1	1000	1000	0	0
199	1	23	?	N	d	364.88	NA	8	56	2	24	c	j	534.3	1	1000	100	0	0
199	1	24	?	P	f	778.04	NA	4	24	7	56	c	n	428.08	1	100	100	0	0
199	1	25	?	N	d	1042.41	NA	3	24	7	56	c	n	549.16	1	100	1000	0	0
199	1	26	?	P	f	1495.27	NA	8	24	2	56	i	n	439.24	1	1000	1000	0	0
199	1	27	?	N	d	1947.09	NA	7	56	4	24	c	j	1183.95	1	100	100	0	0
199	1	28	?	P	f	2352.46	NA	3	24	9	56	c	n	535.74	1	100	100	0	0
199	1	29	?	N	d	717.75	NA	7	24	2	56	i	j	700.38	1	100	100	0	0
199	1	30	?	P	f	303.65	NA	8	24	4	56	i	n	433.19	1	1000	100	0	0
199	1	31	?	P	f	1756.24	NA	8	56	3	24	c	j	399.95	1	100	100	0	0
199	1	32	?	P	f	382.47	NA	9	56	2	24	c	j	467.48	1	1000	100	0	0
199	1	33	?	N	d	1790.6	NA	8	56	3	24	c	j	1030.55	1	100	100	0	0
199	1	34	?	N	d	1393.31	NA	4	56	9	24	i	n	717.82	1	100	1000	0	0
199	1	35	?	N	d	1374.34	NA	8	56	3	24	c	j	547.46	1	100	1000	0	0
199	1	36	?	P	f	1100.6	NA	7	24	2	56	i	n	817.46	1	100	100	0	0
199	1	37	?	P	f	1587.31	NA	3	56	9	24	i	j	430.87	1	100	1000	0	0
199	1	38	?	N	d	853.46	NA	7	24	2	56	i	j	612.27	1	100	100	0	0
199	1	39	?	N	d	2347.55	NA	7	24	4	56	i	j	608.63	1	100	1000	0	0
199	1	40	?	P	f	25.66	NA	9	24	3	56	i	n	764.75	1	1000	100	0	0
199	1	41	?	P	f	1158.09	NA	2	56	7	24	i	j	413.81	1	100	100	0	0
199	1	42	?	N	d	300.66	NA	7	24	3	56	i	j	947.07	1	1000	100	0	0
199	1	43	?	N	d	368.1	NA	8	56	2	24	c	j	429.34	1	1000	1000	0	0
199	1	44	?	P	f	300.4	NA	3	24	7	56	c	n	524.57	1	1000	100	0	0
199	1	45	?	P	f	407.78	NA	8	24	2	56	i	j	514.36	0	1000	1000	0	0
199	1	46	?	N	d	2193.22	NA	9	24	4	56	i	j	987.83	1	100	100	0	1
199	1	47	?	N	d	843.74	NA	9	24	2	56	i	j	606.49	1	100	1000	0	0
199	1	48	?	P	f	1138.28	NA	4	24	7	56	c	n	646.91	1	100	100	0	0
199	1	49	?	N	d	356.66	NA	3	56	7	24	i	n	616.08	1	1000	100	0	0
199	1	50	?	P	f	336.34	NA	4	56	8	24	i	j	386.58	1	1000	1000	0	0
199	1	51	?	N	d	346.39	NA	8	56	3	24	c	j	441.93	1	1000	100	0	0
199	1	52	?	P	f	1579.12	NA	2	24	7	56	c	n	530.03	1	100	1000	0	0
199	1	53	?	N	d	435.05	NA	3	24	8	56	c	n	553.5	1	1000	1000	0	0
199	1	54	?	P	f	200.56	NA	4	56	7	24	i	j	1037.68	1	1000	100	0	0
199	1	55	?	N	d	346.7	NA	8	24	3	56	i	j	768.1	1	1000	1000	0	0
199	1	56	?	P	f	304.91	NA	4	24	7	56	c	n	760.52	1	1000	100	0	0
199	1	57	?	N	d	1637.17	NA	2	24	8	56	c	n	1330.6	1	100	1000	0	0
199	1	58	?	P	f	468.59	NA	9	24	4	56	i	j	892.38	0	1000	100	0	0
199	1	59	?	N	d	329.41	NA	2	24	8	56	c	n	1262.3	1	1000	1000	0	1
199	1	60	?	P	f	1750.28	NA	9	24	3	56	i	j	725.41	0	100	1000	0	0
199	1	61	?	N	d	644.22	NA	9	24	2	56	i	j	1146.85	1	1000	1000	0	1
199	1	62	?	P	f	1719.24	NA	9	56	4	24	c	j	519.41	1	100	1000	0	0
199	1	63	?	N	d	300.54	NA	7	24	2	56	i	j	727.74	1	1000	100	0	0
199	1	64	?	P	f	1063.87	NA	8	24	4	56	i	j	397.09	0	100	100	0	0
199	1	65	?	N	d	1539.53	NA	3	56	8	24	i	n	2583.07	1	100	100	0	1
199	2	1	?	N	d	1307.84	NA	8	24	3	56	i	j	1526.15	1	100	1000	-1	0
199	2	2	?	P	f	307.13	NA	9	24	2	56	i	n	818.11	1	1000	100	0	0
199	2	3	?	N	d	502.85	NA	4	56	7	24	i	n	700.87	1	100	1000	0	0
199	2	4	?	P	f	282.3	NA	7	56	3	24	c	j	467.54	1	1000	100	0	0
199	2	5	?	N	d	271.23	NA	9	56	4	24	c	j	668.17	1	1000	1000	0	0
199	2	6	?	P	f	333.54	NA	2	24	8	56	c	n	490.98	1	1000	100	0	0
199	2	7	?	N	d	328.55	NA	4	56	9	24	i	n	565.16	1	1000	100	0	0
199	2	8	?	P	f	302.56	NA	2	24	7	56	c	n	1207.75	1	1000	100	0	0
199	2	9	?	N	d	361.08	NA	3	56	8	24	i	n	799.84	1	1000	1000	0	0
199	2	10	?	P	f	1125.32	NA	8	56	2	24	c	j	807.84	1	100	100	0	0
199	2	11	?	N	d	1668.9	NA	4	56	8	24	i	n	884.73	1	100	100	0	0
199	2	12	?	P	f	406.35	NA	3	24	7	56	c	n	873.88	1	1000	100	0	0
199	2	13	?	N	d	2152.25	NA	8	56	2	24	c	j	850.41	1	100	100	0	0
199	2	14	?	P	f	280.87	NA	3	24	9	56	c	n	700.97	1	1000	1000	0	0
199	2	15	?	N	d	293.47	NA	7	56	2	24	c	j	1227.01	1	1000	100	0	0
199	2	16	?	P	f	229.36	NA	4	56	8	24	i	n	643.18	0	1000	1000	0	0
199	2	17	?	N	d	1524.0	NA	9	24	3	56	i	j	1177.63	1	100	100	0	1
199	2	18	?	P	f	1265.77	NA	8	24	4	56	i	n	387.07	1	100	1000	0	0
199	2	19	?	N	d	302.02	NA	2	56	9	24	i	n	836.02	1	1000	100	0	0
199	2	20	?	P	f	312.87	NA	7	24	4	56	i	n	800.01	1	1000	1000	0	0
199	2	21	?	N	d	1441.14	NA	7	56	2	24	c	j	682.68	1	100	1000	0	0
199	2	22	?	P	f	314.02	NA	3	56	8	24	i	j	454.49	1	1000	100	0	0
199	2	23	?	N	d	2621.51	NA	4	56	9	24	i	n	1071.33	1	100	1000	0	0
199	2	24	?	P	f	1451.46	NA	3	24	9	56	c	n	692.22	1	100	1000	0	0
199	2	25	?	N	d	296.14	NA	7	56	2	24	c	j	621.89	1	1000	100	0	0
199	2	26	?	P	f	382.2	NA	3	24	8	56	c	n	409.63	1	1000	1000	0	0
199	2	27	?	N	d	1929.37	NA	8	56	2	24	c	j	608.92	1	100	100	0	0
199	2	28	?	P	f	2198.06	NA	3	56	9	24	i	j	688.18	1	100	1000	0	0
199	2	29	?	N	d	325.47	NA	2	24	9	56	c	n	572.28	1	1000	1000	0	0
199	2	30	?	P	f	979.79	NA	7	56	4	24	c	j	384.08	1	100	1000	0	0
199	2	31	?	N	d	2252.47	NA	3	24	7	56	c	n	468.49	1	100	100	0	0
199	2	32	?	P	f	344.98	NA	8	24	2	56	i	n	406.35	1	1000	1000	0	0
199	2	33	?	N	d	1565.26	NA	7	24	3	56	i	j	769.61	1	100	100	0	0
199	2	34	?	P	f	278.41	NA	4	56	7	24	i	j	598.33	1	1000	100	0	0
199	2	35	?	N	d	2137.94	NA	7	24	2	56	i	j	631.99	1	100	1000	0	0
199	2	36	?	P	f	325.08	NA	3	56	7	24	i	j	504.18	1	1000	1000	0	0
199	2	37	?	N	d	1597.0	NA	2	56	9	24	i	n	1160.68	1	100	1000	0	0
199	2	38	?	P	f	432.08	NA	3	56	8	24	i	j	736.52	1	1000	1000	0	0
199	2	39	?	N	d	312.8	NA	4	56	9	24	i	n	734.06	1	1000	100	0	0
199	2	40	?	P	f	304.04	NA	8	56	3	24	c	j	579.17	1	1000	100	0	0
199	2	41	?	N	d	299.69	NA	9	24	2	56	i	j	647.4	1	1000	1000	0	0
199	2	42	?	P	f	830.36	NA	4	56	9	24	i	j	419.04	1	100	1000	0	0
199	2	43	?	N	d	1764.45	NA	2	56	7	24	i	n	914.66	1	100	100	0	0
199	2	44	?	P	f	301.08	NA	7	24	3	56	i	j	1013.85	0	1000	1000	0	0
199	2	45	?	N	d	1618.36	NA	9	24	4	56	i	j	793.87	1	100	1000	0	1
199	2	46	?	P	f	1096.72	NA	9	56	3	24	c	j	633.07	1	100	100	0	0
199	2	47	?	N	d	269.89	NA	8	56	2	24	c	j	577.14	1	1000	1000	0	0
199	2	48	?	P	f	1525.7	NA	3	56	8	24	i	j	1482.65	1	100	100	0	0
199	2	49	?	N	d	1023.42	NA	4	56	7	24	i	n	1301.39	1	100	100	0	0
199	2	50	?	P	f	382.76	NA	3	56	7	24	i	j	1030.15	1	1000	100	0	0
199	2	51	?	N	d	1594.51	NA	7	24	2	56	i	j	1428.77	1	100	100	0	0
199	2	52	?	P	f	366.35	NA	8	56	3	24	c	j	1367.11	1	1000	1000	0	0
199	2	53	?	N	d	2171.72	NA	2	24	8	56	c	n	1286.04	1	100	1000	0	0
199	2	54	?	P	f	2112.71	NA	8	56	3	24	c	j	371.38	1	100	1000	0	0
199	2	55	?	N	d	2520.58	NA	9	56	4	24	c	j	733.3	1	100	1000	0	0
199	2	56	?	P	f	303.74	NA	7	56	2	24	c	j	431.88	1	1000	1000	0	0
199	2	57	?	N	d	527.63	NA	8	24	3	56	i	j	607.94	1	1000	100	0	0
199	2	58	?	P	f	1409.86	NA	2	24	9	56	c	n	494.45	1	100	100	0	0
199	2	59	?	N	d	343.48	NA	3	24	9	56	c	n	866.71	1	1000	100	0	0
199	2	60	?	P	f	663.28	NA	2	24	8	56	c	n	2207.92	1	100	1000	0	0
199	2	61	?	N	d	1351.82	NA	3	56	7	24	i	n	745.03	1	100	100	0	0
199	2	62	?	P	f	500.54	NA	4	24	9	56	c	n	400.3	1	1000	1000	0	0
199	2	63	?	N	d	687.58	NA	3	24	8	56	c	n	612.6	1	100	1000	0	0
199	2	64	?	P	f	1031.59	NA	4	24	9	56	c	n	679.34	1	100	100	0	0
199	2	65	?	N	d	593.51	NA	3	24	7	56	c	n	1339.11	1	100	100	0	0
199	3	1	?	N	d	-164.92	NA	8	24	4	56	i	j	1648.41	1	1000	1000	-1	0
199	3	2	?	P	f	323.56	NA	2	24	9	56	c	n	672.0	1	1000	100	0	0
199	3	3	?	N	d	314.84	NA	3	24	9	56	c	n	579.13	1	1000	100	0	0
199	3	4	?	P	f	299.81	NA	9	24	4	56	i	n	759.26	1	1000	1000	0	0
199	3	5	?	N	d	2311.0	NA	3	24	8	56	c	n	966.39	1	100	1000	0	0
199	3	6	?	P	f	866.43	NA	2	56	9	24	i	j	478.14	1	100	100	0	0
199	3	7	?	N	d	254.23	NA	3	24	7	56	c	n	1040.1	1	1000	1000	0	0
199	3	8	?	P	f	879.23	NA	7	24	4	56	i	n	698.85	1	100	1000	0	0
199	3	9	?	N	d	313.63	NA	9	24	3	56	i	j	622.41	1	1000	1000	0	0
199	3	10	?	P	f	799.94	NA	9	56	4	24	c	j	535.29	1	100	100	0	0
199	3	11	?	N	d	1087.25	NA	9	24	3	56	i	j	837.17	1	1000	100	0	0
199	3	12	?	P	f	561.99	NA	8	24	4	56	i	n	867.89	1	100	100	0	0
199	3	13	?	N	d	288.36	NA	8	56	3	24	c	j	568.82	1	1000	100	0	0
199	3	14	?	P	f	684.29	NA	8	56	4	24	c	j	535.12	1	100	1000	0	0
199	3	15	?	N	d	243.74	NA	3	24	8	56	c	n	1137.91	1	1000	100	0	0
199	3	16	?	P	f	831.04	NA	2	24	9	56	c	n	1130.23	1	100	100	0	0
199	3	17	?	N	d	548.44	NA	7	24	4	56	i	j	892.19	1	100	1000	0	0
199	3	18	?	P	f	679.3	NA	3	56	7	24	i	j	1182.79	1	100	1000	0	0
199	3	19	?	N	d	956.6	NA	4	24	9	56	c	n	715.69	1	100	100	0	0
199	3	20	?	P	f	369.83	NA	8	56	3	24	c	j	398.09	1	1000	1000	0	0
199	3	21	?	N	d	369.8	NA	8	24	4	56	i	j	1208.34	1	1000	100	0	0
199	3	22	?	P	f	294.78	NA	2	56	9	24	i	j	553.2	1	1000	100	0	0
199	3	23	?	N	d	1078.18	NA	9	24	3	56	i	j	642.15	1	100	100	0	0
199	3	24	?	P	f	318.39	NA	4	24	9	56	c	n	644.59	1	1000	1000	0	0
199	3	25	?	N	d	1154.01	NA	8	56	3	24	c	j	1995.68	1	100	100	0	0
199	3	26	?	P	f	1255.03	NA	4	56	9	24	i	j	433.44	1	100	100	0	0
199	3	27	?	N	d	742.26	NA	2	56	8	24	i	n	818.91	1	1000	1000	0	0
199	3	28	?	P	f	357.08	NA	4	56	8	24	i	j	817.96	1	1000	100	0	0
199	3	29	?	N	d	277.45	NA	9	24	2	56	i	j	2035.83	1	1000	1000	0	0
199	3	30	?	P	f	469.48	NA	9	56	3	24	c	j	678.56	1	100	1000	0	0
199	3	31	?	N	d	321.03	NA	8	56	4	24	c	j	849.59	1	1000	100	0	0
199	3	32	?	P	f	619.48	NA	3	24	9	56	c	n	509.94	1	100	100	0	0
199	3	33	?	N	d	286.26	NA	9	56	4	24	c	j	520.86	1	1000	1000	0	0
199	3	34	?	P	f	1226.27	NA	8	56	3	24	c	j	908.97	1	100	1000	0	0
199	3	35	?	N	d	453.35	NA	7	24	4	56	i	j	4751.91	1	1000	1000	0	0
199	3	36	?	P	f	311.74	NA	8	24	3	56	i	n	1092.58	1	1000	1000	0	0
199	3	37	?	N	d	431.58	NA	4	56	9	24	i	n	915.64	1	100	1000	0	0
199	3	38	?	P	f	324.74	NA	9	24	2	56	i	j	2293.68	0	1000	100	0	0
199	3	39	?	N	d	374.22	NA	4	56	8	24	i	n	639.57	1	1000	100	0	1
199	3	40	?	P	f	292.93	NA	9	56	2	24	c	j	697.05	1	1000	100	0	0
199	3	41	?	N	d	334.78	NA	7	56	4	24	c	j	1667.61	1	1000	1000	0	0
199	3	42	?	P	f	450.33	NA	9	24	3	56	i	n	794.91	1	100	100	0	0
199	3	43	?	N	d	479.07	NA	4	56	7	24	i	n	947.91	1	100	100	0	0
199	3	44	?	P	f	323.6	NA	8	56	2	24	c	j	761.92	1	1000	100	0	0
199	3	45	?	N	d	682.57	NA	9	56	3	24	c	j	680.87	1	100	100	0	0
199	3	46	?	P	f	425.64	NA	2	56	9	24	i	j	1135.5	1	100	100	0	0
199	3	47	?	N	d	120.36	NA	3	24	7	56	c	n	588.98	1	1000	1000	0	0
199	3	48	?	P	f	474.09	NA	7	24	4	56	i	n	660.81	1	100	100	0	0
199	3	49	?	N	d	613.99	NA	3	56	7	24	i	n	723.36	1	100	1000	0	0
199	3	50	?	P	f	913.08	NA	9	24	4	56	i	n	429.65	1	100	1000	0	0
199	3	51	?	N	d	367.29	NA	3	24	7	56	c	n	861.77	1	1000	1000	0	0
199	3	52	?	P	f	332.47	NA	8	24	4	56	i	n	1039.72	1	1000	1000	0	0
199	3	53	?	N	d	316.16	NA	9	24	2	56	i	j	1782.94	1	1000	1000	0	0
199	3	54	?	P	f	369.51	NA	4	24	7	56	c	n	1647.04	1	1000	100	0	0
199	3	55	?	N	d	377.86	NA	2	56	9	24	i	n	3771.05	1	1000	100	0	0
199	3	56	?	P	f	619.26	NA	8	24	3	56	i	n	2119.37	1	1000	100	0	0
199	3	57	?	N	d	789.5	NA	2	24	7	56	c	n	3482.04	1	100	1000	0	0
199	3	58	?	P	f	660.36	NA	4	24	8	56	c	n	719.28	1	100	1000	0	0
199	3	59	?	N	d	1685.47	NA	8	24	2	56	i	j	2847.92	1	100	1000	0	0
199	3	60	?	P	f	490.98	NA	8	56	4	24	c	j	728.08	1	1000	1000	0	0
199	3	61	?	N	d	771.59	NA	2	24	8	56	c	n	623.87	1	100	1000	0	0
199	3	62	?	P	f	665.81	NA	3	56	7	24	i	n	1287.96	0	100	1000	0	0
199	3	63	?	N	d	1642.42	NA	7	56	4	24	c	j	525.3	1	100	1000	0	1
199	3	64	?	P	f	1489.16	NA	3	24	7	56	c	j	828.26	0	100	100	0	0
199	3	65	?	N	d	1863.36	NA	7	56	2	24	c	j	1183.1	1	100	100	0	1
199	4	1	?	N	d	1713.04	NA	9	24	3	56	i	j	654.02	1	100	1000	-1	0
199	4	2	?	P	f	606.42	NA	4	56	7	24	i	j	467.51	1	100	1000	0	0
199	4	3	?	N	d	192.4	NA	7	56	3	24	c	j	697.02	1	1000	100	0	0
199	4	4	?	P	f	356.95	NA	4	56	8	24	i	j	1684.74	1	1000	100	0	0
199	4	5	?	N	d	326.45	NA	3	24	7	56	c	n	493.71	1	1000	1000	0	0
199	4	6	?	P	f	264.1	NA	2	24	8	56	c	n	927.26	1	1000	100	0	0
199	4	7	?	N	d	1783.07	NA	8	24	3	56	i	j	804.09	1	100	100	0	0
199	4	8	?	P	f	290.48	NA	4	24	9	56	c	n	1145.38	1	1000	100	0	0
199	4	9	?	N	d	2515.64	NA	9	56	3	24	c	j	745.71	1	100	1000	0	0
199	4	10	?	P	f	1076.36	NA	2	56	8	24	i	j	437.27	1	100	1000	0	0
199	4	11	?	N	d	212.07	NA	7	24	4	56	i	j	586.32	1	1000	1000	0	0
199	4	12	?	P	f	290.06	NA	9	56	2	24	c	j	390.2	1	1000	1000	0	0
199	4	13	?	N	d	327.6	NA	8	24	4	56	i	j	1553.59	1	1000	100	0	0
199	4	14	?	P	f	527.29	NA	2	56	8	24	i	j	912.37	1	100	100	0	0
199	4	15	?	N	d	-4.64	NA	4	56	8	24	i	n	1251.01	1	1000	100	0	0
199	4	16	?	P	f	496.14	NA	2	24	9	56	c	n	496.96	1	100	1000	0	0
199	4	17	?	N	d	245.21	NA	8	56	3	24	c	j	1172.32	1	1000	100	0	0
199	4	18	?	P	f	280.08	NA	4	56	7	24	i	j	947.66	1	1000	1000	0	0
199	4	19	?	N	d	1573.71	NA	2	24	8	56	c	n	997.2	1	100	100	0	0
199	4	20	?	P	f	1753.03	NA	7	56	3	24	c	j	1611.05	1	100	1000	0	0
199	4	21	?	N	d	623.72	NA	2	24	9	56	c	n	1819.22	1	100	1000	0	0
199	4	22	?	P	f	428.26	NA	4	24	7	56	c	n	608.14	1	1000	1000	0	0
199	4	23	?	N	d	295.34	NA	3	56	8	24	i	n	778.16	1	1000	1000	0	0
199	4	24	?	P	f	1333.82	NA	2	56	7	24	i	j	2222.86	1	100	100	0	0
199	4	25	?	N	d	608.17	NA	8	56	3	24	c	j	829.88	1	100	100	0	0
199	4	26	?	P	f	447.75	NA	4	56	8	24	i	j	3277.48	1	100	1000	0	0
199	4	27	?	N	d	677.51	NA	7	56	3	24	c	j	867.04	1	1000	100	0	0
199	4	28	?	P	f	292.39	NA	4	24	9	56	c	n	584.1	1	1000	100	0	0
199	4	29	?	N	d	700.14	NA	8	56	3	24	c	j	1097.47	1	100	100	0	0
199	4	30	?	P	f	380.02	NA	7	56	4	24	c	j	2309.69	1	100	1000	0	0
199	4	31	?	N	d	316.75	NA	3	56	7	24	i	n	647.34	1	1000	1000	0	0
199	4	32	?	P	f	290.29	NA	8	56	4	24	c	j	401.37	1	1000	1000	0	0
199	4	33	?	N	d	1639.87	NA	3	24	9	56	c	n	1344.32	1	100	1000	0	0
199	4	34	?	P	f	252.44	NA	4	24	8	56	c	n	767.4	1	1000	1000	0	0
199	4	35	?	N	d	360.6	NA	7	56	2	24	c	j	483.8	1	1000	1000	0	0
199	4	36	?	P	f	676.96	NA	8	56	3	24	c	j	1113.02	1	100	1000	0	0
199	4	37	?	N	d	1211.51	NA	4	56	7	24	i	n	1349.95	1	100	1000	0	0
199	4	38	?	P	f	337.07	NA	9	24	3	56	i	n	1445.31	1	1000	100	0	0
199	4	39	?	N	d	2616.22	NA	2	56	9	24	i	n	1094.44	1	100	1000	0	0
199	4	40	?	P	f	263.87	NA	9	24	3	56	i	n	690.73	1	1000	100	0	0
199	4	41	?	N	d	880.54	NA	7	24	2	56	i	j	643.24	1	100	1000	0	0
199	4	42	?	P	f	1096.75	NA	9	24	3	56	i	n	463.76	1	100	1000	0	0
199	4	43	?	N	d	762.38	NA	8	24	4	56	i	j	588.12	1	100	100	0	0
199	4	44	?	P	f	257.78	NA	8	24	3	56	i	n	435.8	1	1000	1000	0	0
199	4	45	?	N	d	1089.44	NA	4	24	7	56	c	n	534.19	1	100	1000	0	0
199	4	46	?	P	f	288.62	NA	3	56	9	24	i	j	715.83	1	1000	100	0	0
199	4	47	?	N	d	1091.57	NA	4	56	8	24	i	n	1043.0	1	100	1000	0	0
199	4	48	?	P	f	769.72	NA	2	24	7	56	c	n	780.33	1	100	100	0	0
199	4	49	?	N	d	412.89	NA	3	24	8	56	c	n	801.86	1	1000	100	0	0
199	4	50	?	P	f	322.47	NA	4	56	9	24	i	j	1110.13	1	1000	100	0	0
199	4	51	?	N	d	284.39	NA	7	56	2	24	c	j	633.1	1	1000	100	0	0
199	4	52	?	P	f	394.01	NA	7	56	3	24	c	j	685.58	1	1000	1000	0	0
199	4	53	?	N	d	1561.42	NA	2	56	9	24	i	n	754.23	1	100	100	0	0
199	4	54	?	P	f	1079.7	NA	8	24	3	56	i	n	756.27	1	100	100	0	0
199	4	55	?	N	d	733.05	NA	7	56	2	24	c	j	794.31	1	100	100	0	0
199	4	56	?	P	f	747.74	NA	3	24	7	56	c	n	634.57	1	100	100	0	0
199	4	57	?	N	d	288.93	NA	9	24	2	56	i	j	556.86	1	1000	1000	0	0
199	4	58	?	P	f	835.13	NA	9	24	4	56	i	n	1420.74	1	100	100	0	0
199	4	59	?	N	d	672.99	NA	2	24	7	56	c	n	1245.1	1	100	100	0	0
199	4	60	?	P	f	253.42	NA	3	24	7	56	c	n	488.08	1	1000	1000	0	0
199	4	61	?	N	d	269.56	NA	8	24	4	56	i	j	543.27	1	1000	1000	0	0
199	4	62	?	P	f	263.26	NA	8	24	2	56	i	n	430.49	1	1000	1000	0	0
199	4	63	?	N	d	1426.34	NA	9	56	4	24	c	j	753.29	1	100	100	0	0
199	4	64	?	P	f	244.96	NA	8	24	2	56	i	n	496.96	1	1000	100	0	0
199	4	65	?	N	d	1145.65	NA	3	56	7	24	i	n	822.93	1	100	100	0	0
199	5	1	?	N	d	2.04	NA	8	56	4	24	c	j	1005.15	1	1000	1000	-1	0
199	5	2	?	P	f	56.41	NA	7	56	2	24	c	j	806.46	1	1000	100	0	0
199	5	3	?	N	d	1329.15	NA	8	24	3	56	i	j	1226.99	1	100	1000	0	0
199	5	4	?	P	f	726.13	NA	4	24	7	56	c	n	504.01	1	100	1000	0	0
199	5	5	?	N	d	269.35	NA	2	56	9	24	i	n	857.52	1	1000	1000	0	0
199	5	6	?	P	f	328.42	NA	3	24	8	56	c	n	1677.94	1	1000	1000	0	0
199	5	7	?	N	d	2481.03	NA	9	56	2	24	c	j	1970.09	1	100	100	0	0
199	5	8	?	P	f	289.08	NA	4	56	9	24	i	j	918.77	1	1000	100	0	0
199	5	9	?	N	d	1460.12	NA	3	24	7	56	c	n	2372.66	1	100	100	0	0
199	5	10	?	P	f	437.25	NA	2	56	8	24	i	j	848.83	1	1000	1000	0	0
199	5	11	?	N	d	2182.09	NA	3	56	9	24	i	n	7303.98	1	100	1000	0	0
199	5	12	?	P	f	1978.24	NA	7	24	2	56	i	n	6231.2	1	100	1000	0	0
199	5	13	?	N	d	769.32	NA	4	24	7	56	c	n	2253.06	1	100	1000	0	0
199	5	14	?	P	f	304.64	NA	2	24	9	56	c	n	1209.8	1	1000	100	0	0
199	5	15	?	N	d	770.59	NA	8	56	3	24	c	j	442.18	1	100	1000	0	0
199	5	16	?	P	f	273.49	NA	4	56	8	24	i	j	400.87	1	1000	1000	0	0
199	5	17	?	N	d	1380.63	NA	8	24	2	56	i	j	768.96	1	100	100	0	0
199	5	18	?	P	f	322.1	NA	7	56	4	24	c	j	546.99	1	1000	100	0	0
199	5	19	?	N	d	266.59	NA	3	56	7	24	i	n	660.46	1	1000	100	0	0
199	5	20	?	P	f	285.85	NA	7	24	2	56	i	j	701.62	0	1000	100	0	0
199	5	21	?	N	d	289.12	NA	7	56	3	24	c	j	500.76	1	1000	1000	0	1
199	5	22	?	P	f	1031.41	NA	7	56	2	24	c	j	352.63	1	100	1000	0	0
199	5	23	?	N	d	1607.32	NA	7	24	4	56	i	j	1087.54	1	100	100	0	0
199	5	24	?	P	f	335.21	NA	9	24	3	56	i	n	475.99	1	1000	100	0	0
199	5	25	?	N	d	1479.24	NA	7	56	2	24	c	j	438.74	1	100	1000	0	0
199	5	26	?	P	f	258.9	NA	3	56	9	24	i	j	978.66	1	1000	100	0	0
199	5	27	?	N	d	1256.53	NA	9	24	4	56	i	j	1512.69	1	100	1000	0	0
199	5	28	?	P	f	411.22	NA	8	24	3	56	i	n	416.7	1	1000	1000	0	0
199	5	29	?	N	d	406.52	NA	9	24	4	56	i	j	1301.12	1	1000	100	0	0
199	5	30	?	P	f	1441.67	NA	9	24	3	56	i	n	963.49	1	100	100	0	0
199	5	31	?	N	d	1540.1	NA	9	56	2	24	c	j	488.82	1	100	1000	0	0
199	5	32	?	P	f	1632.69	NA	4	56	9	24	i	j	420.16	1	100	1000	0	0
199	5	33	?	N	d	381.13	NA	3	24	9	56	c	n	814.73	1	1000	100	0	0
199	5	34	?	P	f	1730.67	NA	8	24	4	56	i	n	947.98	1	100	100	0	0
199	5	35	?	N	d	1158.01	NA	7	24	2	56	i	j	1155.77	1	100	100	0	0
199	5	36	?	P	f	291.82	NA	4	24	8	56	c	n	909.82	1	1000	1000	0	0
199	5	37	?	N	d	2108.8	NA	3	24	8	56	c	n	659.36	1	100	1000	0	0
199	5	38	?	P	f	274.29	NA	2	24	9	56	c	n	840.66	1	1000	1000	0	0
199	5	39	?	N	d	327.73	NA	7	56	3	24	c	j	709.88	1	1000	1000	0	0
199	5	40	?	P	f	713.06	NA	9	56	2	24	c	j	858.38	1	100	100	0	0
199	5	41	?	N	d	273.02	NA	9	56	4	24	c	j	637.19	1	1000	1000	0	0
199	5	42	?	P	f	290.36	NA	2	24	8	56	c	n	447.31	1	1000	100	0	0
199	5	43	?	N	d	954.63	NA	4	56	8	24	i	n	1275.95	1	100	1000	0	0
199	5	44	?	P	f	577.52	NA	9	24	2	56	i	n	1250.0	1	100	100	0	0
199	5	45	?	N	d	1316.86	NA	4	24	7	56	c	n	600.98	1	100	1000	0	0
199	5	46	?	P	f	616.02	NA	7	56	3	24	c	j	658.3	1	100	100	0	0
199	5	47	?	N	d	317.03	NA	9	56	2	24	c	j	531.14	1	1000	100	0	0
199	5	48	?	P	f	1675.03	NA	8	56	4	24	c	j	560.13	1	100	100	0	0
199	5	49	?	N	d	297.15	NA	2	24	7	56	c	n	565.72	1	1000	1000	0	0
199	5	50	?	P	f	1619.66	NA	3	24	7	56	c	n	509.34	1	100	100	0	0
199	5	51	?	N	d	1130.2	NA	2	56	7	24	i	n	1308.6	1	100	100	0	0
199	5	52	?	P	f	452.85	NA	4	24	7	56	c	n	577.99	1	100	100	0	0
199	5	53	?	N	d	411.72	NA	9	24	3	56	i	j	655.08	1	100	100	0	0
199	5	54	?	P	f	179.07	NA	7	56	4	24	c	j	655.91	1	1000	100	0	0
199	5	55	?	N	d	123.48	NA	7	56	3	24	c	j	525.48	1	1000	1000	0	0
199	5	56	?	P	f	25.52	NA	4	56	9	24	i	j	471.85	1	1000	1000	0	0
199	5	57	?	N	d	-170.65	NA	2	56	9	24	i	n	753.94	1	1000	1000	0	0
199	5	58	?	P	f	663.19	NA	3	24	9	56	c	n	711.79	1	100	100	0	0
199	5	59	?	N	d	535.74	NA	4	56	7	24	i	n	1375.8	1	100	1000	0	0
199	5	60	?	P	f	294.65	NA	9	24	2	56	i	n	429.03	1	1000	1000	0	0
199	5	61	?	N	d	265.8	NA	7	24	3	56	i	j	647.02	1	1000	100	0	0
199	5	62	?	P	f	289.67	NA	2	24	9	56	c	n	525.43	1	1000	100	0	0
199	5	63	?	N	d	284.76	NA	9	24	4	56	i	j	497.07	1	1000	1000	0	0
199	5	64	?	P	f	1471.73	NA	2	56	9	24	i	j	2220.36	1	100	1000	0	0
199	5	65	?	P	f	356.58	NA	9	24	3	56	i	n	942.47	1	1000	100	0	0
199	6	1	?	N	d	314.06	NA	7	56	2	24	c	j	1264.01	1	1000	100	-1	0
199	6	2	?	P	f	401.43	NA	8	24	3	56	i	n	845.87	1	1000	1000	0	0
199	6	3	?	N	d	277.17	NA	8	56	2	24	c	j	877.01	1	1000	1000	0	0
199	6	4	?	P	f	535.28	NA	4	24	7	56	c	n	711.55	1	100	100	0	0
199	6	5	?	N	d	1199.31	NA	8	56	3	24	c	j	646.62	1	100	100	0	0
199	6	6	?	P	f	277.92	NA	9	24	4	56	i	n	1440.41	1	1000	1000	0	0
199	6	7	?	N	d	1217.62	NA	3	56	8	24	i	n	646.96	1	100	1000	0	0
199	6	8	?	P	f	503.38	NA	9	56	4	24	c	j	657.73	1	100	100	0	0
199	6	9	?	N	d	351.68	NA	2	56	8	24	i	n	1713.11	1	100	100	0	0
199	6	10	?	P	f	446.9	NA	9	24	3	56	i	j	565.31	0	100	1000	0	0
199	6	11	?	N	d	1045.89	NA	9	24	2	56	i	j	810.87	1	100	1000	0	1
199	6	12	?	P	f	703.34	NA	4	56	9	24	i	j	419.8	1	100	1000	0	0
199	6	13	?	N	d	1123.92	NA	2	24	8	56	c	n	525.6	1	100	100	0	0
199	6	14	?	P	f	285.1	NA	7	56	4	24	c	j	767.65	1	1000	100	0	0
199	6	15	?	N	d	654.73	NA	2	56	7	24	i	n	679.76	1	100	1000	0	0
199	6	16	?	P	f	333.4	NA	4	24	9	56	c	n	479.06	1	1000	1000	0	0
199	6	17	?	N	d	637.13	NA	9	24	2	56	i	j	1017.76	1	1000	100	0	0
199	6	18	?	P	f	-45.67	NA	8	24	3	56	i	n	789.42	1	1000	100	0	0
199	6	19	?	N	d	518.83	NA	9	56	2	24	c	n	802.44	0	100	100	0	0
199	6	20	?	N	d	1122.75	NA	9	24	3	56	i	j	1998.01	1	100	100	0	1
199	6	21	?	P	f	695.51	NA	9	56	2	24	c	j	596.79	1	100	1000	0	0
199	6	22	?	N	d	267.44	NA	8	56	3	24	c	j	1097.32	1	1000	1000	0	0
199	6	23	?	P	f	278.27	NA	7	24	4	56	i	n	1655.86	1	1000	100	0	0
199	6	24	?	N	d	-328.18	NA	2	24	9	56	c	n	1158.69	1	1000	1000	0	0
199	6	25	?	P	f	227.25	NA	4	56	8	24	i	j	744.35	1	1000	100	0	0
199	6	26	?	N	d	274.9	NA	9	24	2	56	i	j	831.31	1	1000	100	0	0
199	6	27	?	P	f	267.24	NA	3	24	9	56	c	n	767.59	1	1000	100	0	0
199	6	28	?	N	d	1520.79	NA	4	56	8	24	i	n	881.83	1	100	100	0	0
199	6	29	?	P	f	831.24	NA	3	24	8	56	c	n	735.75	1	100	100	0	0
199	6	30	?	N	d	300.84	NA	4	24	7	56	c	n	783.03	1	1000	1000	0	0
199	6	31	?	P	f	269.42	NA	3	56	7	24	i	j	847.53	1	1000	1000	0	0
199	6	32	?	N	d	672.99	NA	4	56	8	24	i	n	1065.28	1	100	100	0	0
199	6	33	?	P	f	482.8	NA	9	56	3	24	c	j	443.81	1	100	1000	0	0
199	6	34	?	N	d	286.14	NA	9	24	2	56	i	j	993.47	1	1000	1000	0	0
199	6	35	?	N	d	1693.09	NA	3	24	9	56	c	n	2247.95	1	100	1000	0	0
199	6	36	?	P	f	355.59	NA	8	56	2	24	c	j	682.72	1	1000	100	0	0
199	6	37	?	N	d	1406.13	NA	8	24	4	56	i	j	1863.14	1	100	100	0	0
199	6	38	?	P	f	1323.67	NA	3	24	8	56	c	n	1963.57	1	100	1000	0	0
199	6	39	?	N	d	276.99	NA	9	24	2	56	i	j	731.17	1	1000	1000	0	0
199	6	40	?	P	f	1314.34	NA	9	24	4	56	i	n	813.96	1	100	100	0	0
199	6	41	?	N	d	266.88	NA	3	56	8	24	i	j	3044.79	0	1000	100	0	0
199	6	42	?	N	d	1309.45	NA	7	56	4	24	c	j	1651.69	1	1000	1000	0	1
199	6	43	?	P	f	382.73	NA	3	56	9	24	i	j	635.03	1	1000	1000	0	0
199	6	44	?	N	d	277.4	NA	4	24	9	56	c	n	687.43	1	1000	100	0	0
199	6	45	?	P	f	775.52	NA	2	56	8	24	i	n	2214.52	0	100	1000	0	0
199	6	46	?	N	d	1043.12	NA	9	24	3	56	i	j	730.43	1	100	100	0	1
199	6	47	?	P	f	583.59	NA	9	56	4	24	c	j	479.12	1	100	100	0	0
199	6	48	?	N	d	-208.15	NA	9	56	3	24	c	j	548.1	1	1000	100	0	0
199	6	49	?	P	f	674.13	NA	8	56	2	24	c	j	615.3	1	100	1000	0	0
199	6	50	?	N	d	449.76	NA	3	56	8	24	i	n	624.11	1	100	1000	0	0
199	6	51	?	P	f	1162.0	NA	2	24	7	56	c	n	1070.13	1	100	100	0	0
199	6	52	?	N	d	256.9	NA	3	24	9	56	c	n	569.9	1	1000	1000	0	0
199	6	53	?	P	f	954.4	NA	2	24	8	56	c	n	521.94	1	100	1000	0	0
199	6	54	?	N	d	1396.34	NA	3	24	7	56	c	n	2510.01	1	100	1000	0	0
199	6	55	?	P	f	261.66	NA	2	56	9	24	i	j	541.85	1	1000	100	0	0
199	6	56	?	N	d	667.47	NA	9	24	4	56	i	j	2909.29	1	100	1000	0	0
199	6	57	?	P	f	384.36	NA	2	24	9	56	c	n	637.6	1	1000	100	0	0
199	6	58	?	N	d	234.11	NA	3	56	7	24	i	n	733.48	1	1000	1000	0	0
199	6	59	?	P	f	247.65	NA	9	56	2	24	c	j	724.32	1	1000	100	0	0
199	6	60	?	N	d	317.04	NA	7	56	4	24	c	j	535.73	1	1000	1000	0	0
199	6	61	?	P	f	1133.69	NA	8	56	2	24	c	j	512.1	1	100	1000	0	0
199	6	62	?	N	d	299.75	NA	3	24	7	56	c	n	568.36	1	1000	100	0	0
199	6	63	?	P	f	345.13	NA	9	24	2	56	i	n	1104.44	1	1000	1000	0	0
199	6	64	?	N	d	290.32	NA	4	56	8	24	i	n	627.54	1	1000	100	0	0
199	6	65	?	P	f	500.98	NA	3	56	8	24	i	j	711.81	1	100	100	0	0
