subj	block	trial	task_cue	task	choice_resp	choiceRT	choice_acc	topnum	topsize	botnum	botsize	cong	task_resp	taskRT	task_acc	RSI	CSI	altRep	E1
203	1	1	?	N	d	2568.62	NA	3	24	9	56	c	n	871.91	1	100	1000	-1	0
203	1	2	?	P	f	1158.88	NA	9	56	4	24	c	j	707.74	1	100	100	0	0
203	1	3	?	P	f	1295.78	NA	8	24	2	56	i	n	1036.45	1	100	1000	0	0
203	1	4	?	N	d	255.97	NA	4	56	7	24	i	n	1604.27	1	1000	1000	0	0
203	1	5	?	N	d	1843.58	NA	7	24	3	56	i	j	650.52	1	100	1000	0	0
203	1	6	?	P	f	687.3	NA	2	56	7	24	i	j	1377.37	1	1000	100	0	0
203	1	7	?	P	f	285.75	NA	9	24	3	56	i	j	846.41	0	1000	1000	0	0
203	1	8	?	N	d	277.01	NA	2	56	7	24	i	n	2037.5	1	1000	100	0	1
203	1	9	?	N	d	1123.5	NA	4	56	7	24	i	n	1009.07	1	100	100	0	0
203	1	10	?	P	f	734.7	NA	7	24	2	56	i	n	710.53	1	100	1000	0	0
203	1	11	?	P	f	-334.11	NA	3	24	8	56	c	n	715.56	1	1000	100	0	0
203	1	12	?	N	d	865.37	NA	9	56	4	24	c	j	1017.67	1	100	100	0	0
203	1	13	?	N	d	-360.52	NA	7	24	3	56	i	j	1407.52	1	1000	1000	0	0
203	1	14	?	P	f	-303.95	NA	7	24	4	56	i	n	946.89	1	1000	1000	0	0
203	1	15	?	P	f	402.47	NA	8	24	3	56	i	n	1264.07	1	100	100	0	0
203	1	16	?	N	d	-72.38	NA	7	24	4	56	i	j	1100.36	1	1000	100	0	0
203	1	17	?	N	d	416.83	NA	7	56	3	24	c	j	806.55	1	100	100	0	0
203	1	18	?	P	f	778.27	NA	2	24	9	56	c	n	651.96	1	100	1000	0	0
203	1	19	?	P	f	-499.26	NA	3	24	7	56	c	n	606.59	1	1000	100	0	0
203	1	20	?	N	d	1408.14	NA	8	24	2	56	i	j	2470.77	1	100	1000	0	0
203	1	21	?	N	d	-375.63	NA	3	24	7	56	c	n	2292.37	1	1000	1000	0	0
203	1	22	?	P	f	-212.98	NA	4	56	7	24	i	j	1904.43	1	1000	1000	0	0
203	1	23	?	P	f	-420.43	NA	8	56	2	24	c	j	684.44	1	1000	100	0	0
203	1	24	?	N	d	-106.41	NA	7	24	4	56	i	j	1729.01	1	1000	1000	0	0
203	1	25	?	N	d	805.57	NA	7	24	3	56	i	j	647.93	1	100	100	0	0
203	1	26	?	P	f	684.97	NA	9	56	2	24	c	j	598.28	1	100	1000	0	0
203	1	27	?	P	f	-509.39	NA	3	24	9	56	c	n	909.98	1	1000	1000	0	0
203	1	28	?	N	d	635.55	NA	9	24	2	56	i	n	1013.76	0	100	1000	0	0
203	1	29	?	N	d	538.52	NA	4	56	8	24	i	n	2009.04	1	100	100	0	1
203	1	30	?	P	f	452.53	NA	3	56	9	24	i	j	656.9	1	100	100	0	0
203	1	31	?	P	f	-596.1	NA	2	24	7	56	c	n	575.62	1	1000	1000	0	0
203	1	32	?	N	d	-189.18	NA	8	56	4	24	c	j	1612.57	1	1000	1000	0	0
203	1	33	?	N	d	435.45	NA	9	24	3	56	i	j	778.67	1	100	1000	0	0
203	1	34	?	P	f	626.43	NA	7	24	2	56	i	n	1596.07	1	100	1000	0	0
203	1	35	?	P	f	-400.17	NA	7	24	3	56	i	n	647.36	1	1000	1000	0	0
203	1	36	?	N	d	357.37	NA	2	24	9	56	c	n	1021.74	1	1000	100	0	0
203	1	37	?	N	d	1045.9	NA	8	56	3	24	c	j	979.61	1	1000	1000	0	0
203	1	38	?	P	f	176.21	NA	8	56	2	24	c	j	696.92	1	1000	100	0	0
203	1	39	?	P	f	1021.58	NA	3	24	8	56	c	n	3224.3	1	100	100	0	0
203	1	40	?	N	d	584.9	NA	2	56	8	24	i	n	1650.16	1	100	100	0	0
203	1	41	?	N	d	-485.52	NA	4	24	9	56	c	n	630.2	1	1000	1000	0	0
203	1	42	?	P	f	-72.52	NA	3	24	9	56	c	n	1595.87	1	1000	100	0	0
203	1	43	?	P	f	-501.77	NA	4	56	7	24	i	j	952.13	1	1000	100	0	0
203	1	44	?	N	d	-500.17	NA	7	24	2	56	i	n	1021.3	0	1000	100	0	0
203	1	45	?	N	d	821.28	NA	3	24	7	56	c	n	838.49	1	100	100	0	1
203	1	46	?	P	f	1125.31	NA	4	24	9	56	c	n	1549.45	1	100	1000	0	0
203	1	47	?	P	f	483.17	NA	7	56	2	24	c	j	557.28	1	100	1000	0	0
203	1	48	?	N	d	689.15	NA	9	56	3	24	c	j	1469.86	1	100	100	0	0
203	1	49	?	N	d	470.27	NA	2	56	7	24	i	n	723.41	1	100	1000	0	0
203	1	50	?	P	f	520.02	NA	3	24	9	56	c	n	769.15	1	100	100	0	0
203	1	51	?	P	f	403.17	NA	2	56	7	24	i	j	521.92	1	100	100	0	0
203	1	52	?	N	d	439.41	NA	3	24	9	56	c	n	592.95	1	100	100	0	0
203	1	53	?	N	d	-470.05	NA	8	24	4	56	i	j	916.08	1	1000	1000	0	0
203	1	54	?	P	f	404.69	NA	8	56	3	24	c	j	691.82	1	100	1000	0	0
203	1	55	?	P	f	-583.65	NA	8	56	2	24	c	j	554.52	1	1000	1000	0	0
203	1	56	?	N	d	-395.86	NA	9	56	3	24	c	j	956.64	1	1000	1000	0	0
203	1	57	?	N	d	406.49	NA	8	56	4	24	c	j	591.83	1	100	1000	0	0
203	1	58	?	P	f	-369.44	NA	9	24	3	56	i	n	1095.77	1	1000	100	0	0
203	1	59	?	P	f	288.32	NA	2	24	9	56	c	n	636.43	1	100	1000	0	0
203	1	60	?	N	d	481.82	NA	3	24	9	56	c	n	1208.36	1	100	1000	0	0
203	1	61	?	N	d	-370.67	NA	9	56	2	24	c	j	711.86	1	1000	100	0	0
203	1	62	?	P	f	-17.21	NA	9	24	3	56	i	n	1819.38	1	1000	100	0	0
203	1	63	?	P	f	-590.41	NA	7	24	4	56	i	n	672.48	1	1000	100	0	0
203	1	64	?	N	d	-338.42	NA	9	56	3	24	c	j	778.67	1	1000	100	0	0
203	1	65	?	N	d	310.62	NA	7	24	2	56	i	j	1115.19	1	100	100	0	0
203	2	1	?	N	d	3619.07	NA	8	24	2	56	i	j	1759.97	1	1000	1000	-1	0
203	2	2	?	N	d	-110.94	NA	3	24	9	56	c	n	1027.27	1	1000	1000	0	0
203	2	3	?	P	f	-266.49	NA	7	24	2	56	i	n	972.88	1	1000	1000	0	0
203	2	4	?	P	f	-631.03	NA	8	56	3	24	c	j	630.71	1	1000	1000	0	0
203	2	5	?	N	d	-656.24	NA	9	24	2	56	i	j	740.63	1	1000	1000	0	0
203	2	6	?	N	d	-685.98	NA	7	56	3	24	c	j	667.17	1	1000	100	0	0
203	2	7	?	P	f	-687.33	NA	4	56	9	24	i	n	755.79	0	1000	100	0	0
203	2	8	?	P	f	-642.8	NA	3	24	8	56	c	n	777.43	1	1000	100	0	1
203	2	9	?	N	d	-670.9	NA	2	56	8	24	i	n	895.72	1	1000	100	0	0
203	2	10	?	N	d	-658.5	NA	7	56	3	24	c	j	660.64	1	1000	100	0	0
203	2	11	?	P	f	-243.58	NA	8	24	2	56	i	n	1086.66	1	1000	100	0	0
203	2	12	?	P	f	-678.9	NA	3	24	8	56	c	n	538.02	1	1000	1000	0	0
203	2	13	?	P	f	303.49	NA	8	24	2	56	i	n	960.75	1	100	1000	0	0
203	2	14	?	N	d	253.4	NA	4	56	7	24	i	n	1412.0	1	100	100	0	0
203	2	15	?	N	d	287.03	NA	8	56	3	24	c	j	1951.68	1	100	100	0	0
203	2	16	?	N	d	226.9	NA	2	56	7	24	i	n	1540.88	1	100	100	0	0
203	2	17	?	N	d	182.65	NA	3	56	9	24	i	n	1298.69	1	100	1000	0	0
203	2	18	?	P	f	167.21	NA	2	56	7	24	i	j	1604.12	1	1000	1000	0	0
203	2	19	?	P	f	212.68	NA	8	56	3	24	c	j	1229.27	1	100	100	0	0
203	2	20	?	P	f	97.28	NA	8	56	2	24	c	j	679.58	1	100	100	0	0
203	2	21	?	N	d	1751.78	NA	4	24	7	56	c	n	704.09	1	100	1000	0	0
203	2	22	?	N	d	258.93	NA	8	24	2	56	i	n	908.87	0	100	1000	0	0
203	2	23	?	P	f	-560.45	NA	9	56	3	24	c	j	937.82	1	1000	1000	0	1
203	2	24	?	P	f	-542.77	NA	7	56	4	24	c	j	855.02	1	1000	100	0	0
203	2	25	?	N	d	225.42	NA	9	24	3	56	i	j	1112.49	1	100	100	0	0
203	2	26	?	N	d	199.29	NA	7	24	2	56	i	j	805.14	1	100	100	0	0
203	2	27	?	N	d	134.84	NA	4	24	8	56	c	n	801.25	1	100	1000	0	0
203	2	28	?	P	f	-0.51	NA	2	24	7	56	c	n	1713.1	1	1000	100	0	0
203	2	29	?	P	f	-670.22	NA	9	56	3	24	c	j	839.05	1	1000	1000	0	0
203	2	30	?	N	d	-642.38	NA	4	24	7	56	c	n	1035.62	1	1000	1000	0	0
203	2	31	?	N	d	-635.15	NA	3	24	9	56	c	n	728.3	1	1000	1000	0	0
203	2	32	?	P	f	254.31	NA	4	56	7	24	i	j	940.48	1	100	100	0	0
203	2	33	?	P	f	182.02	NA	3	56	7	24	i	j	849.45	1	100	100	0	0
203	2	34	?	N	d	179.68	NA	4	24	7	56	c	n	1004.96	1	100	100	0	0
203	2	35	?	P	f	-11.52	NA	3	56	9	24	i	j	861.14	1	1000	1000	0	0
203	2	36	?	N	d	4495.61	NA	4	56	8	24	i	n	1145.33	1	100	100	0	0
203	2	37	?	N	d	152.74	NA	2	24	7	56	c	n	679.36	1	100	100	0	0
203	2	38	?	P	f	-297.83	NA	3	56	8	24	i	j	1471.79	1	1000	100	0	0
203	2	39	?	P	f	89.01	NA	8	56	4	24	c	j	568.95	1	100	1000	0	0
203	2	40	?	P	f	-690.44	NA	7	56	2	24	c	j	649.93	1	1000	1000	0	0
203	2	41	?	N	d	-327.41	NA	8	56	4	24	c	j	1025.18	1	1000	100	0	0
203	2	42	?	N	d	3806.41	NA	3	24	9	56	c	n	780.52	1	100	100	0	0
203	2	43	?	N	d	-791.83	NA	7	24	2	56	i	j	818.7	1	1000	1000	0	0
203	2	44	?	P	f	402.95	NA	7	24	4	56	i	n	970.65	1	100	1000	0	0
203	2	45	?	P	f	133.57	NA	3	56	9	24	i	j	1571.08	1	100	1000	0	0
203	2	46	?	N	d	-251.32	NA	4	56	8	24	i	n	1539.48	1	1000	1000	0	0
203	2	47	?	N	d	731.98	NA	7	56	2	24	c	j	814.12	1	100	1000	0	0
203	2	48	?	P	f	830.79	NA	7	56	4	24	c	j	1004.3	1	100	1000	0	0
203	2	49	?	P	f	-70.51	NA	8	24	2	56	i	n	1248.17	1	1000	100	0	0
203	2	50	?	N	d	-228.55	NA	3	56	7	24	i	n	1597.18	1	1000	100	0	0
203	2	51	?	N	d	379.69	NA	2	24	7	56	c	n	598.16	1	100	1000	0	0
203	2	52	?	P	f	573.35	NA	8	24	3	56	i	n	1357.77	1	100	100	0	0
203	2	53	?	P	f	621.74	NA	4	56	7	24	i	j	747.38	1	100	1000	0	0
203	2	54	?	N	d	560.63	NA	3	24	9	56	c	n	1135.52	1	100	1000	0	0
203	2	55	?	N	d	1245.74	NA	4	24	9	56	c	n	1048.52	1	100	100	0	0
203	2	56	?	P	f	-385.71	NA	2	56	7	24	i	j	1091.05	1	1000	100	0	0
203	2	57	?	P	f	272.23	NA	8	56	3	24	c	j	1110.09	1	100	100	0	0
203	2	58	?	P	f	-729.14	NA	7	24	2	56	i	j	4695.77	0	1000	1000	0	0
203	2	59	?	N	d	-651.36	NA	4	24	7	56	c	n	1455.31	1	1000	100	0	1
203	2	60	?	N	d	192.03	NA	2	56	9	24	i	n	1054.71	1	100	1000	0	0
203	2	61	?	P	f	326.78	NA	3	56	7	24	i	j	1090.32	1	100	1000	0	0
203	2	62	?	P	f	-832.9	NA	2	24	7	56	c	n	1543.77	1	1000	100	0	0
203	2	63	?	N	d	-807.33	NA	8	24	3	56	i	j	962.25	1	1000	100	0	0
203	2	64	?	N	d	-816.84	NA	2	56	8	24	i	n	2413.0	1	1000	1000	0	0
203	2	65	?	P	f	243.97	NA	7	56	3	24	c	j	6233.37	1	100	1000	0	0
203	3	1	?	N	d	654.88	NA	8	24	3	56	i	j	1187.76	1	1000	100	-1	0
203	3	2	?	N	d	167.94	NA	8	24	2	56	i	j	868.83	1	100	100	0	0
203	3	3	?	N	d	-769.52	NA	7	56	4	24	c	j	1663.51	1	1000	100	0	0
203	3	4	?	P	f	-545.96	NA	3	24	8	56	c	n	771.82	1	1000	1000	0	0
203	3	5	?	P	f	-743.92	NA	4	24	8	56	c	n	1496.91	1	1000	1000	0	0
203	3	6	?	P	f	-770.72	NA	7	56	3	24	c	j	727.78	1	1000	1000	0	0
203	3	7	?	P	f	-805.88	NA	9	24	4	56	i	n	962.78	1	1000	1000	0	0
203	3	8	?	N	d	97.25	NA	8	24	3	56	i	j	768.38	1	100	1000	0	0
203	3	9	?	N	d	-657.26	NA	4	24	8	56	c	j	605.69	0	1000	100	0	0
203	3	10	?	N	d	136.39	NA	3	56	7	24	i	n	1983.22	1	100	1000	0	1
203	3	11	?	P	f	573.51	NA	4	56	9	24	i	j	1414.71	1	100	100	0	0
203	3	12	?	P	f	189.26	NA	3	24	9	56	c	n	883.3	1	100	1000	0	0
203	3	13	?	N	d	462.44	NA	7	56	2	24	c	j	1070.87	1	100	1000	0	0
203	3	14	?	N	d	-510.0	NA	3	56	8	24	i	n	967.39	1	1000	100	0	0
203	3	15	?	P	f	911.07	NA	4	56	7	24	i	j	1148.11	1	1000	100	0	0
203	3	16	?	P	f	77.34	NA	8	24	3	56	i	n	1147.82	1	100	1000	0	0
203	3	17	?	N	d	43.3	NA	7	56	4	24	c	j	1338.28	1	100	1000	0	0
203	3	18	?	N	d	-362.46	NA	3	56	7	24	i	n	1023.37	1	1000	1000	0	0
203	3	19	?	P	f	10.37	NA	4	24	9	56	c	n	1273.49	1	1000	100	0	0
203	3	20	?	P	f	-765.69	NA	2	56	8	24	i	n	845.29	0	1000	1000	0	0
203	3	21	?	N	d	534.4	NA	7	56	3	24	c	j	1071.09	1	1000	100	0	1
203	3	22	?	N	d	178.65	NA	8	24	4	56	i	n	631.63	0	1000	1000	0	0
203	3	23	?	P	f	1066.91	NA	2	56	9	24	i	j	1051.85	1	1000	1000	0	1
203	3	24	?	P	f	210.96	NA	3	24	9	56	c	n	991.15	1	100	100	0	0
203	3	25	?	N	d	1330.59	NA	7	24	2	56	i	j	3726.48	1	100	1000	0	0
203	3	26	?	N	d	338.88	NA	4	24	8	56	c	j	-615.35	0	1000	1000	0	0
203	3	27	?	P	f	973.58	NA	8	56	3	24	c	j	897.39	1	1000	100	0	1
203	3	28	?	P	f	616.64	NA	7	24	2	56	i	n	1086.39	1	100	100	0	0
203	3	29	?	N	d	-173.25	NA	4	56	7	24	i	n	1448.65	1	1000	1000	0	0
203	3	30	?	N	d	663.07	NA	3	56	8	24	i	n	912.63	1	100	1000	0	0
203	3	31	?	P	f	-207.88	NA	4	56	7	24	i	j	1302.27	1	1000	100	0	0
203	3	32	?	P	f	357.2	NA	7	56	2	24	c	j	1088.8	1	100	100	0	0
203	3	33	?	N	d	-429.58	NA	9	56	3	24	c	n	978.87	0	1000	1000	0	0
203	3	34	?	N	d	501.95	NA	9	56	4	24	c	j	2940.5	1	100	100	0	1
203	3	35	?	P	f	4465.06	NA	8	24	2	56	i	n	1518.83	1	1000	1000	0	0
203	3	36	?	P	f	260.5	NA	4	56	7	24	i	j	980.66	1	100	100	0	0
203	3	37	?	N	d	-556.27	NA	3	24	9	56	c	n	1145.32	1	1000	100	0	0
203	3	38	?	N	d	287.93	NA	8	24	2	56	i	j	1390.5	1	100	100	0	0
203	3	39	?	P	f	-405.94	NA	4	24	7	56	c	n	1757.21	1	1000	100	0	0
203	3	40	?	P	f	125.22	NA	7	24	2	56	i	n	706.48	1	100	1000	0	0
203	3	41	?	N	d	1003.55	NA	3	24	8	56	c	n	1376.28	1	100	1000	0	0
203	3	42	?	N	d	251.05	NA	4	24	9	56	c	n	1083.62	1	100	100	0	0
203	3	43	?	P	f	786.72	NA	3	56	9	24	i	j	645.28	1	1000	100	0	0
203	3	44	?	N	d	-769.81	NA	4	56	8	24	i	n	1020.5	1	1000	100	0	0
203	3	45	?	N	d	561.32	NA	8	56	2	24	c	j	754.0	1	1000	1000	0	0
203	3	46	?	N	d	472.03	NA	7	56	3	24	c	j	882.67	1	100	1000	0	0
203	3	47	?	P	f	1328.13	NA	2	24	8	56	c	n	810.62	1	100	100	0	0
203	3	48	?	P	f	915.34	NA	9	24	4	56	i	n	926.95	1	1000	100	0	0
203	3	49	?	N	d	637.13	NA	3	56	7	24	i	n	1265.27	1	100	100	0	0
203	3	50	?	N	d	-207.02	NA	4	56	9	24	i	n	830.81	1	1000	100	0	0
203	3	51	?	P	f	1281.1	NA	3	56	9	24	i	j	599.5	1	100	1000	0	0
203	3	52	?	P	f	-610.27	NA	2	56	9	24	i	j	990.08	1	1000	1000	0	0
203	3	53	?	N	d	654.11	NA	7	56	4	24	c	j	1040.77	1	100	100	0	0
203	3	54	?	N	d	124.91	NA	8	24	3	56	i	j	966.08	1	1000	100	0	0
203	3	55	?	P	f	1395.24	NA	4	24	9	56	c	n	1282.18	1	100	1000	0	0
203	3	56	?	P	f	887.7	NA	9	56	2	24	c	j	679.7	1	100	1000	0	0
203	3	57	?	N	d	604.75	NA	8	56	3	24	c	j	883.3	1	100	100	0	0
203	3	58	?	N	d	585.17	NA	2	56	8	24	i	n	1387.2	1	100	100	0	0
203	3	59	?	P	f	189.09	NA	3	24	8	56	c	n	1750.73	1	1000	1000	0	0
203	3	60	?	P	f	382.92	NA	4	56	9	24	i	j	1152.73	1	100	1000	0	0
203	3	61	?	N	d	402.69	NA	2	24	8	56	c	n	1140.77	1	100	100	0	0
203	3	62	?	N	d	385.0	NA	4	56	7	24	i	n	1409.23	1	100	100	0	0
203	3	63	?	P	f	-437.45	NA	9	56	3	24	c	j	837.07	1	1000	100	0	0
203	3	64	?	P	f	-431.09	NA	9	56	2	24	c	j	752.14	1	1000	1000	0	0
203	3	65	?	P	f	144.0	NA	4	24	8	56	c	n	1237.67	1	100	1000	0	0
203	4	1	?	N	d	3319.65	NA	7	24	2	56	i	j	1479.41	1	100	1000	-1	0
203	4	2	?	N	d	198.68	NA	7	56	3	24	c	j	816.6	1	100	100	0	0
203	4	3	?	N	d	-812.64	NA	4	56	7	24	i	n	1135.33	1	1000	1000	0	0
203	4	4	?	P	f	-635.08	NA	3	24	8	56	c	n	536.57	1	1000	1000	0	0
203	4	5	?	P	f	-723.29	NA	9	56	2	24	c	j	450.35	1	1000	100	0	0
203	4	6	?	N	d	147.43	NA	8	24	4	56	i	j	994.15	1	100	100	0	0
203	4	7	?	N	d	-749.63	NA	2	56	8	24	i	n	1186.55	1	1000	1000	0	0
203	4	8	?	P	f	358.56	NA	9	24	3	56	i	n	1088.82	1	100	1000	0	0
203	4	9	?	P	f	-879.56	NA	2	56	7	24	i	j	766.47	1	1000	100	0	0
203	4	10	?	N	d	-688.19	NA	4	56	8	24	i	n	1181.21	1	1000	1000	0	0
203	4	11	?	N	d	-319.33	NA	3	56	8	24	i	n	865.04	1	1000	100	0	0
203	4	12	?	N	d	280.08	NA	8	24	2	56	i	n	1386.55	0	100	1000	0	0
203	4	13	?	P	f	245.31	NA	8	24	3	56	i	n	1251.49	1	100	1000	0	1
203	4	14	?	N	d	439.02	NA	4	56	9	24	i	n	1255.34	1	1000	100	0	0
203	4	15	?	N	d	-564.43	NA	8	56	2	24	c	j	743.12	1	1000	100	0	0
203	4	16	?	P	f	-525.55	NA	4	24	8	56	c	n	1152.23	1	1000	1000	0	0
203	4	17	?	P	f	19.83	NA	9	56	3	24	c	j	1400.52	1	100	100	0	0
203	4	18	?	N	d	-722.2	NA	8	56	2	24	c	j	1385.12	1	1000	100	0	0
203	4	19	?	N	d	204.21	NA	7	24	3	56	i	j	792.38	1	100	1000	0	0
203	4	20	?	P	f	364.27	NA	2	56	9	24	i	j	2523.67	1	100	1000	0	0
203	4	21	?	P	f	-722.13	NA	9	56	4	24	c	j	1349.87	1	1000	1000	0	0
203	4	22	?	N	d	2925.3	NA	2	24	7	56	c	n	1256.58	1	100	100	0	0
203	4	23	?	N	d	1328.06	NA	7	56	4	24	c	j	934.25	1	100	1000	0	0
203	4	24	?	P	f	788.53	NA	3	24	8	56	c	n	2446.8	1	100	1000	0	0
203	4	25	?	N	d	1142.97	NA	2	56	9	24	i	n	1248.59	1	100	100	0	0
203	4	26	?	P	f	-476.64	NA	9	56	3	24	c	j	1134.72	1	1000	1000	0	0
203	4	27	?	P	f	-181.15	NA	2	24	7	56	c	n	778.5	1	1000	100	0	0
203	4	28	?	N	d	-310.51	NA	7	24	4	56	i	j	1108.98	1	1000	100	0	0
203	4	29	?	N	d	320.31	NA	2	24	7	56	c	n	1095.09	1	100	1000	0	0
203	4	30	?	P	f	1176.75	NA	7	24	3	56	i	j	594.84	0	100	1000	0	0
203	4	31	?	P	f	198.22	NA	9	24	4	56	i	n	1051.26	1	100	100	0	1
203	4	32	?	N	d	581.91	NA	2	24	7	56	c	n	1241.87	1	100	1000	0	0
203	4	33	?	N	d	250.11	NA	9	56	4	24	c	j	1379.19	1	100	1000	0	0
203	4	34	?	P	f	-580.04	NA	2	24	9	56	c	n	1245.81	1	1000	100	0	0
203	4	35	?	P	f	198.66	NA	3	24	7	56	c	n	701.32	1	100	1000	0	0
203	4	36	?	P	f	41.92	NA	2	56	7	24	i	j	1269.49	1	100	1000	0	0
203	4	37	?	N	d	1639.05	NA	3	56	8	24	i	n	849.88	1	1000	100	0	0
203	4	38	?	N	d	899.73	NA	9	24	4	56	i	n	950.62	0	1000	1000	0	0
203	4	39	?	P	f	2058.21	NA	3	24	8	56	c	n	1212.74	1	1000	100	0	1
203	4	40	?	P	f	455.63	NA	7	56	4	24	c	j	715.33	1	1000	1000	0	0
203	4	41	?	N	d	269.69	NA	9	24	2	56	i	j	1298.0	1	100	100	0	0
203	4	42	?	N	d	54.97	NA	8	24	3	56	i	j	782.8	1	100	100	0	0
203	4	43	?	P	f	-643.34	NA	2	56	8	24	i	j	967.29	1	1000	1000	0	0
203	4	44	?	P	f	215.67	NA	8	56	4	24	c	j	488.11	1	100	1000	0	0
203	4	45	?	N	d	-597.82	NA	2	24	8	56	c	n	967.78	1	1000	1000	0	0
203	4	46	?	N	d	-608.21	NA	7	56	4	24	c	j	1058.63	1	1000	1000	0	0
203	4	47	?	P	f	-583.47	NA	2	56	7	24	i	j	1016.22	1	1000	1000	0	0
203	4	48	?	P	f	66.65	NA	4	24	7	56	c	n	953.13	1	100	100	0	0
203	4	49	?	P	f	-904.37	NA	8	56	3	24	c	j	516.01	1	1000	100	0	0
203	4	50	?	N	d	124.58	NA	7	24	2	56	i	j	1078.42	1	100	100	0	0
203	4	51	?	N	d	535.48	NA	3	56	7	24	i	n	913.96	1	100	100	0	0
203	4	52	?	N	d	313.02	NA	7	56	2	24	c	j	599.32	1	100	1000	0	0
203	4	53	?	P	f	-216.1	NA	3	24	7	56	c	n	934.91	1	1000	100	0	0
203	4	54	?	N	d	1564.86	NA	2	56	7	24	i	n	1027.26	1	100	1000	0	0
203	4	55	?	N	d	792.67	NA	4	24	8	56	c	n	888.0	1	100	100	0	0
203	4	56	?	P	f	472.59	NA	2	24	8	56	c	n	828.65	1	100	100	0	0
203	4	57	?	P	f	-602.5	NA	4	24	9	56	c	n	648.66	1	1000	1000	0	0
203	4	58	?	P	f	53.96	NA	2	56	8	24	i	j	1469.0	1	1000	100	0	0
203	4	59	?	N	d	-484.17	NA	9	24	3	56	i	j	1251.83	1	1000	100	0	0
203	4	60	?	N	d	744.29	NA	7	56	2	24	c	j	765.9	1	100	100	0	0
203	4	61	?	N	d	-317.72	NA	4	56	9	24	i	n	923.05	1	1000	100	0	0
203	4	62	?	P	f	856.65	NA	9	56	3	24	c	j	907.48	1	100	100	0	0
203	4	63	?	P	f	35.53	NA	4	56	9	24	i	n	767.43	0	1000	1000	0	0
203	4	64	?	N	d	2207.66	NA	2	56	9	24	i	n	1165.25	1	100	100	0	1
203	4	65	?	N	d	312.92	NA	3	56	7	24	i	n	779.04	1	1000	1000	0	0
203	5	1	?	N	d	1770.63	NA	3	24	9	56	c	n	1005.54	1	1000	100	-1	0
203	5	2	?	N	d	461.34	NA	9	56	4	24	c	j	654.59	1	100	100	0	0
203	5	3	?	N	d	-452.74	NA	9	56	3	24	c	j	820.89	1	1000	1000	0	0
203	5	4	?	P	f	-565.63	NA	7	24	4	56	i	n	1225.9	1	1000	100	0	0
203	5	5	?	P	f	195.13	NA	3	56	7	24	i	j	901.32	1	100	1000	0	0
203	5	6	?	N	d	705.97	NA	4	24	8	56	c	n	759.79	1	100	1000	0	0
203	5	7	?	N	d	-672.54	NA	3	56	8	24	i	n	938.27	1	1000	1000	0	0
203	5	8	?	P	f	-598.38	NA	2	24	8	56	c	n	675.79	1	1000	100	0	0
203	5	9	?	P	f	-673.21	NA	3	24	7	56	c	n	521.53	1	1000	1000	0	0
203	5	10	?	N	d	687.23	NA	2	56	9	24	i	j	835.85	0	100	1000	0	0
203	5	11	?	P	f	695.92	NA	7	56	3	24	c	j	530.01	1	100	1000	0	1
203	5	12	?	P	f	819.1	NA	8	24	4	56	i	n	881.09	1	100	100	0	0
203	5	13	?	N	d	594.01	NA	2	24	8	56	c	n	765.86	1	100	100	0	0
203	5	14	?	N	d	349.1	NA	3	56	8	24	i	j	680.76	0	100	100	0	0
203	5	15	?	P	f	-26.53	NA	4	24	9	56	c	n	887.43	1	1000	1000	0	1
203	5	16	?	P	f	336.03	NA	3	56	7	24	i	j	701.62	1	100	100	0	0
203	5	17	?	N	d	413.25	NA	4	56	8	24	i	n	497.7	1	100	1000	0	0
203	5	18	?	N	d	-678.86	NA	3	24	8	56	c	n	1033.9	1	1000	1000	0	0
203	5	19	?	P	f	-395.41	NA	2	56	8	24	i	j	878.13	1	1000	1000	0	0
203	5	20	?	P	f	141.25	NA	9	56	3	24	c	j	741.14	1	100	100	0	0
203	5	21	?	N	d	982.39	NA	4	56	7	24	i	n	1298.03	1	100	1000	0	0
203	5	22	?	N	d	200.55	NA	3	24	7	56	c	n	625.69	1	100	100	0	0
203	5	23	?	N	d	-919.74	NA	2	24	9	56	c	n	478.17	1	1000	100	0	0
203	5	24	?	P	f	152.92	NA	9	24	3	56	i	n	1803.83	1	100	1000	0	0
203	5	25	?	P	f	-487.81	NA	9	24	4	56	i	n	1146.13	1	1000	100	0	0
203	5	26	?	P	f	-916.79	NA	8	24	3	56	i	n	772.56	1	1000	1000	0	0
203	5	27	?	N	d	-811.1	NA	9	56	2	24	c	j	698.33	1	1000	1000	0	0
203	5	28	?	N	d	-633.16	NA	7	56	3	24	c	j	977.2	1	1000	1000	0	0
203	5	29	?	P	f	128.9	NA	7	24	4	56	i	n	1240.33	1	1000	100	0	0
203	5	30	?	P	f	5615.64	NA	2	24	8	56	c	n	426.78	1	100	1000	0	0
203	5	31	?	N	d	-502.61	NA	4	56	9	24	i	n	962.17	1	1000	1000	0	0
203	5	32	?	N	d	-647.94	NA	9	24	3	56	i	j	1075.14	1	1000	1000	0	0
203	5	33	?	P	f	364.02	NA	7	24	4	56	i	n	701.58	1	100	100	0	0
203	5	34	?	P	f	210.78	NA	2	56	7	24	i	j	1159.23	1	100	1000	0	0
203	5	35	?	N	d	273.96	NA	9	24	4	56	i	n	751.31	0	100	100	0	0
203	5	36	?	N	d	204.27	NA	8	24	3	56	i	j	1659.74	1	100	100	0	1
203	5	37	?	P	f	-290.25	NA	7	56	2	24	c	j	1051.56	1	1000	100	0	0
203	5	38	?	P	f	293.89	NA	9	56	3	24	c	j	596.62	1	100	1000	0	0
203	5	39	?	N	d	233.73	NA	8	56	2	24	c	j	737.53	1	100	1000	0	0
203	5	40	?	N	d	-700.33	NA	3	56	9	24	i	n	832.86	1	1000	100	0	0
203	5	41	?	P	f	371.33	NA	4	24	9	56	c	n	634.98	1	100	1000	0	0
203	5	42	?	P	f	-724.17	NA	7	56	2	24	c	j	806.72	1	1000	1000	0	0
203	5	43	?	N	d	576.71	NA	7	56	3	24	c	j	505.28	1	100	1000	0	0
203	5	44	?	N	d	203.04	NA	8	56	2	24	c	j	780.77	1	100	100	0	0
203	5	45	?	N	d	-858.75	NA	3	24	9	56	c	n	651.38	1	1000	100	0	0
203	5	46	?	P	f	-849.05	NA	2	24	8	56	c	n	617.02	1	1000	100	0	0
203	5	47	?	P	f	0.81	NA	7	56	4	24	c	j	790.18	1	100	100	0	0
203	5	48	?	P	f	11.37	NA	3	56	8	24	i	j	1027.73	1	100	100	0	0
203	5	49	?	P	f	-18.41	NA	2	24	7	56	c	j	1267.65	0	100	100	0	0
203	5	50	?	N	d	10.33	NA	3	56	7	24	i	n	1070.79	1	100	100	0	1
203	5	51	?	N	d	133.99	NA	9	24	2	56	i	j	924.24	1	100	1000	0	0
203	5	52	?	N	d	-888.33	NA	7	56	4	24	c	j	1049.78	1	1000	100	0	0
203	5	53	?	N	d	-891.3	NA	9	56	2	24	c	j	1226.62	1	1000	100	0	0
203	5	54	?	P	f	140.46	NA	4	24	7	56	c	n	806.63	1	100	1000	0	0
203	5	55	?	P	f	-326.96	NA	9	56	3	24	c	j	778.31	1	1000	100	0	0
203	5	56	?	N	d	231.44	NA	8	24	4	56	i	j	1455.33	1	1000	1000	0	0
203	5	57	?	N	d	-857.74	NA	9	24	2	56	i	j	752.97	1	1000	1000	0	0
203	5	58	?	P	f	132.92	NA	4	24	9	56	c	n	1267.4	1	100	100	0	0
203	5	59	?	P	f	-822.63	NA	3	56	9	24	i	j	1059.45	1	1000	100	0	0
203	5	60	?	P	f	-886.91	NA	2	56	7	24	i	j	1253.29	1	1000	100	0	0
203	5	61	?	N	d	-599.86	NA	3	24	8	56	c	n	1088.78	1	1000	1000	0	0
203	5	62	?	N	d	-192.75	NA	9	24	4	56	i	j	980.0	1	1000	100	0	0
203	5	63	?	P	f	1426.38	NA	3	56	8	24	i	j	1246.11	1	100	1000	0	0
203	5	64	?	P	f	-793.11	NA	7	24	2	56	i	n	885.34	1	1000	1000	0	0
203	5	65	?	P	f	-871.5	NA	4	56	8	24	i	j	1651.33	1	1000	100	0	0
203	6	1	?	N	d	1516.13	NA	9	24	3	56	i	n	757.86	0	1000	1000	-1	0
203	6	2	?	N	d	82.36	NA	8	56	2	24	c	j	511.05	1	100	1000	0	1
203	6	3	?	N	d	-17.31	NA	9	24	3	56	i	j	1256.79	1	100	100	0	0
203	6	4	?	P	f	687.51	NA	8	56	4	24	c	j	1837.46	1	1000	1000	0	0
203	6	5	?	P	f	-1.26	NA	2	56	8	24	i	j	1221.38	1	100	100	0	0
203	6	6	?	N	d	-622.14	NA	8	24	3	56	i	j	1101.91	1	1000	100	0	0
203	6	7	?	N	d	120.95	NA	8	56	4	24	c	j	1321.5	1	100	1000	0	0
203	6	8	?	P	f	123.49	NA	3	24	8	56	c	n	456.81	1	100	1000	0	0
203	6	9	?	P	f	-685.88	NA	4	56	9	24	i	j	497.25	1	1000	1000	0	0
203	6	10	?	N	d	246.53	NA	8	24	2	56	i	j	1060.47	1	100	100	0	0
203	6	11	?	N	d	-783.9	NA	8	24	3	56	i	n	916.59	0	1000	1000	0	0
203	6	12	?	N	d	-744.37	NA	9	24	2	56	i	j	1688.47	1	1000	100	0	1
203	6	13	?	P	f	-452.85	NA	7	24	4	56	i	n	1136.37	1	1000	100	0	0
203	6	14	?	P	f	144.51	NA	2	24	8	56	c	n	529.13	1	100	1000	0	0
203	6	15	?	N	d	-523.15	NA	8	56	4	24	c	j	603.73	1	1000	1000	0	0
203	6	16	?	N	d	-778.87	NA	8	24	2	56	i	j	608.15	1	1000	100	0	0
203	6	17	?	P	f	-606.71	NA	3	56	7	24	i	j	1296.93	1	1000	1000	0	0
203	6	18	?	P	f	75.9	NA	8	24	4	56	i	n	695.83	1	100	1000	0	0
203	6	19	?	P	f	-860.77	NA	3	24	9	56	c	n	1200.12	1	1000	1000	0	0
203	6	20	?	N	d	-822.98	NA	4	24	8	56	c	n	1272.4	1	1000	100	0	0
203	6	21	?	N	d	-823.47	NA	9	56	3	24	c	j	1046.74	1	1000	1000	0	0
203	6	22	?	P	f	-804.23	NA	8	56	2	24	c	j	942.81	1	1000	100	0	0
203	6	23	?	P	f	-842.19	NA	4	24	9	56	c	n	701.23	1	1000	1000	0	0
203	6	24	?	N	d	-860.52	NA	2	56	7	24	i	n	1414.6	1	1000	100	0	0
203	6	25	?	N	d	19.07	NA	4	56	7	24	i	n	1529.7	1	100	100	0	0
203	6	26	?	N	d	-871.94	NA	9	56	3	24	c	j	1279.28	1	1000	100	0	0
203	6	27	?	N	d	-973.72	NA	4	24	9	56	c	n	4181.99	1	1000	1000	0	0
203	6	28	?	P	f	-558.89	NA	7	24	2	56	i	n	2459.85	1	1000	100	0	0
203	6	29	?	N	d	-651.82	NA	9	56	3	24	c	j	1545.19	1	1000	100	0	0
203	6	30	?	P	f	174.45	NA	4	56	8	24	i	j	1651.94	1	100	1000	0	0
203	6	31	?	P	f	57.74	NA	2	24	7	56	c	n	1011.05	1	100	100	0	0
203	6	32	?	N	d	16.75	NA	3	56	8	24	i	n	1155.0	1	100	100	0	0
203	6	33	?	N	d	-857.32	NA	4	24	7	56	c	n	889.64	1	1000	100	0	0
203	6	34	?	P	f	226.59	NA	8	56	2	24	c	j	820.74	1	100	100	0	0
203	6	35	?	P	f	-846.63	NA	9	24	3	56	i	n	1642.2	1	1000	1000	0	0
203	6	36	?	N	d	25.46	NA	2	24	9	56	c	n	989.57	1	100	100	0	0
203	6	37	?	N	d	45.31	NA	8	24	3	56	i	j	1250.98	1	100	1000	0	0
203	6	38	?	P	f	-619.6	NA	7	24	4	56	i	n	1599.3	1	1000	100	0	0
203	6	39	?	P	f	314.56	NA	7	24	2	56	i	n	1692.72	1	100	100	0	0
203	6	40	?	N	d	171.72	NA	8	24	4	56	i	j	986.58	1	100	100	0	0
203	6	41	?	N	d	-859.83	NA	9	24	2	56	i	j	1515.89	1	1000	1000	0	0
203	6	42	?	P	f	2159.38	NA	7	56	3	24	c	j	615.12	1	100	1000	0	0
203	6	43	?	P	f	-801.39	NA	7	24	2	56	i	n	2035.86	1	1000	1000	0	0
203	6	44	?	P	f	3196.91	NA	3	24	9	56	c	n	495.23	1	100	1000	0	0
203	6	45	?	P	f	220.77	NA	4	24	7	56	c	n	556.78	1	100	1000	0	0
203	6	46	?	N	d	159.41	NA	8	56	2	24	c	j	843.02	1	100	1000	0	0
203	6	47	?	N	d	94.39	NA	3	56	9	24	i	n	1362.38	1	100	100	0	0
203	6	48	?	P	f	221.43	NA	7	56	2	24	c	j	839.52	1	100	100	0	0
203	6	49	?	P	f	248.04	NA	8	56	4	24	c	j	646.83	1	100	100	0	0
203	6	50	?	N	d	335.35	NA	2	56	7	24	i	n	902.48	1	100	1000	0	0
203	6	51	?	N	d	98.85	NA	3	56	8	24	i	n	691.6	1	100	1000	0	0
203	6	52	?	P	f	48.7	NA	2	24	9	56	c	n	1153.27	1	100	100	0	0
203	6	53	?	P	f	-881.39	NA	9	24	4	56	i	j	1010.23	0	1000	1000	0	0
203	6	54	?	N	d	185.38	NA	7	24	2	56	i	j	958.73	1	100	1000	0	1
203	6	55	?	P	f	127.86	NA	8	56	3	24	c	j	1442.1	1	100	100	0	0
203	6	56	?	N	d	-685.38	NA	4	56	7	24	i	n	1229.65	1	1000	1000	0	0
203	6	57	?	N	d	-478.84	NA	8	56	3	24	c	j	659.18	1	1000	1000	0	0
203	6	58	?	P	f	185.28	NA	4	56	9	24	i	j	879.66	1	100	1000	0	0
203	6	59	?	P	f	-680.19	NA	3	56	8	24	i	j	717.59	1	1000	100	0	0
203	6	60	?	N	d	-720.53	NA	4	24	8	56	c	n	1013.76	1	1000	1000	0	0
203	6	61	?	N	d	177.63	NA	3	56	9	24	i	n	2059.37	1	100	1000	0	0
203	6	62	?	P	f	3299.99	NA	4	24	7	56	c	n	982.52	1	100	100	0	0
203	6	63	?	P	f	-205.05	NA	9	56	3	24	c	j	731.77	1	1000	100	0	0
203	6	64	?	N	d	-385.22	NA	2	24	7	56	c	n	831.52	1	1000	100	0	0
203	6	65	?	P	f	854.0	NA	3	24	8	56	c	n	994.46	1	1000	100	0	0
