subj	block	trial	task_cue	task	choice_resp	choiceRT	choice_acc	topnum	topsize	botnum	botsize	cong	task_resp	taskRT	task_acc	RSI	CSI	altRep	E1
204	1	1	N	N	d	691.59	0	9	56	3	24	c	j	549.02	1	1000	1000	-1	0
204	1	2	P	P	f	437.6	1	2	24	7	56	c	n	601.24	1	1000	100	1	0
204	1	3	P	P	f	918.62	1	3	56	9	24	i	j	384.6	1	1000	1000	0	0
204	1	4	N	N	d	300.05	0	8	24	4	56	i	j	671.38	1	1000	100	1	0
204	1	5	N	N	f	505.08	0	2	56	8	24	i	n	827.5	1	1000	100	0	0
204	1	6	P	P	f	1029.22	1	7	56	3	24	c	j	1094.02	1	100	100	1	0
204	1	7	N	N	d	398.87	0	9	56	2	24	c	j	600.82	1	1000	1000	1	0
204	1	8	N	N	d	620.08	0	3	24	7	56	c	n	509.51	1	1000	1000	0	0
204	1	9	N	N	d	758.55	0	2	56	8	24	i	n	650.57	1	100	100	0	0
204	1	10	P	P	f	440.08	1	7	24	3	56	i	n	705.15	1	1000	100	1	0
204	1	11	P	P	f	325.95	1	8	24	4	56	i	n	527.99	1	1000	100	0	0
204	1	12	P	P	f	480.27	1	8	24	3	56	i	n	1308.84	1	100	100	0	0
204	1	13	N	N	d	531.34	0	9	24	4	56	i	j	1229.91	1	1000	1000	1	0
204	1	14	P	P	f	682.66	1	2	24	7	56	c	n	501.55	1	100	100	1	0
204	1	15	N	N	d	424.51	0	9	24	3	56	i	j	977.19	1	100	100	1	0
204	1	16	N	N	d	645.64	0	9	56	4	24	c	j	440.92	1	1000	100	0	0
204	1	17	P	P	f	622.43	1	8	24	3	56	i	n	793.48	1	100	1000	1	0
204	1	18	N	N	d	567.86	0	4	24	9	56	c	n	710.32	1	100	1000	1	0
204	1	19	P	P	f	319.05	1	8	56	2	24	c	j	408.82	1	1000	1000	1	0
204	1	20	N	N	d	645.94	0	7	56	4	24	c	j	1059.39	1	100	100	1	0
204	1	21	N	N	f	318.34	0	2	24	9	56	c	n	1533.69	1	1000	100	0	0
204	1	22	N	N	d	483.9	0	4	24	7	56	c	n	1603.99	1	100	1000	0	0
204	1	23	P	P	f	413.53	1	2	56	7	24	i	j	643.9	1	1000	1000	1	0
204	1	24	N	N	d	850.57	0	4	56	8	24	i	n	1209.5	1	100	1000	1	0
204	1	25	P	P	f	442.31	1	9	24	3	56	i	j	920.94	0	1000	1000	1	0
204	1	26	N	N	d	561.07	0	4	56	8	24	i	n	1045.71	1	1000	1000	1	1
204	1	27	N	N	d	513.65	0	8	24	3	56	i	n	689.48	0	100	1000	0	0
204	1	28	P	P	f	800.12	1	7	24	4	56	i	j	895.72	0	100	100	1	1
204	1	29	P	P	f	445.37	1	2	56	7	24	i	j	1228.0	1	1000	100	0	1
204	1	30	N	N	d	691.98	0	4	24	9	56	c	n	458.61	1	1000	1000	1	0
204	1	31	P	P	f	329.94	1	7	56	2	24	c	j	779.71	1	1000	100	1	0
204	1	32	P	P	d	277.57	1	4	24	8	56	c	n	968.09	1	1000	100	0	0
204	1	33	N	N	d	571.48	0	2	24	7	56	c	n	1006.9	1	100	100	1	0
204	1	34	P	P	f	328.49	1	3	56	9	24	i	j	844.95	1	100	100	1	0
204	1	35	P	P	f	546.47	1	8	24	2	56	i	n	609.72	1	1000	1000	0	0
204	1	36	P	P	f	466.18	1	7	56	4	24	c	j	726.18	1	100	100	0	0
204	1	37	N	N	d	263.48	0	2	56	9	24	i	j	656.0	0	1000	100	1	0
204	1	38	P	P	d	315.93	1	3	56	8	24	i	j	894.57	1	1000	100	1	1
204	1	39	N	N	d	578.83	0	9	56	4	24	c	j	778.71	1	1000	100	1	0
204	1	40	P	P	f	345.31	1	3	56	9	24	i	j	687.36	1	100	1000	1	0
204	1	41	P	P	d	381.63	1	7	56	2	24	c	j	735.66	1	1000	100	0	0
204	1	42	P	P	f	741.0	1	4	56	9	24	i	j	1020.08	1	100	1000	0	0
204	1	43	P	P	f	493.21	1	8	56	3	24	c	j	842.61	1	100	1000	0	0
204	1	44	N	N	f	387.24	0	4	56	8	24	i	j	792.92	0	100	100	1	0
204	1	45	N	N	d	656.23	0	3	56	9	24	i	n	794.0	1	1000	1000	0	1
204	1	46	N	N	f	713.91	0	9	56	2	24	c	j	779.28	1	1000	1000	0	0
204	1	47	N	N	d	604.33	0	7	24	4	56	i	j	815.27	1	100	100	0	0
204	1	48	P	P	f	539.78	1	3	24	8	56	c	n	760.33	1	100	1000	1	0
204	1	49	P	P	f	557.76	1	7	24	2	56	i	j	783.86	0	100	1000	0	0
204	1	50	P	P	f	889.51	1	3	24	7	56	c	n	501.09	1	100	1000	0	1
204	1	51	N	N	f	445.71	0	2	24	7	56	c	n	700.29	1	1000	100	1	0
204	1	52	N	N	d	518.61	0	3	24	7	56	c	n	701.04	1	100	100	0	0
204	1	53	N	N	d	585.97	0	9	24	2	56	i	j	846.86	1	1000	100	0	0
204	1	54	P	P	f	661.29	1	3	24	7	56	c	n	506.41	1	1000	1000	1	0
204	1	55	N	N	d	721.78	0	7	24	4	56	i	j	1006.73	1	100	1000	1	0
204	1	56	N	N	d	710.27	0	9	56	2	24	c	j	1047.03	1	100	100	0	0
204	1	57	P	P	f	542.87	1	7	56	4	24	c	j	505.3	1	100	1000	1	0
204	1	58	P	P	f	698.49	1	2	24	8	56	c	n	500.22	1	100	100	0	0
204	1	59	P	P	f	562.58	1	8	56	3	24	c	j	394.93	1	1000	1000	0	0
204	1	60	P	P	f	366.51	1	4	24	9	56	c	n	546.58	1	1000	1000	0	0
204	1	61	P	P	f	390.43	1	2	56	9	24	i	j	1516.45	1	100	100	0	0
204	1	62	N	N	d	595.92	0	8	56	3	24	c	j	474.1	1	100	1000	1	0
204	1	63	N	N	d	374.33	0	4	56	8	24	i	n	1065.91	1	100	1000	0	0
204	1	64	N	N	d	393.3	0	7	56	2	24	c	j	539.38	1	100	1000	0	0
204	1	65	N	N	d	270.41	0	9	24	3	56	i	j	634.04	1	1000	1000	0	0
204	2	1	P	P	f	789.81	1	4	56	8	24	i	j	1502.73	1	100	1000	-1	0
204	2	2	N	N	d	559.31	0	8	56	2	24	c	n	685.69	0	100	100	1	0
204	2	3	N	N	f	504.36	0	4	24	8	56	c	n	1501.32	1	100	100	0	1
204	2	4	P	P	f	496.01	1	3	24	9	56	c	n	889.94	1	1000	1000	1	0
204	2	5	N	N	d	294.23	0	7	56	2	24	c	j	518.46	1	1000	100	1	0
204	2	6	P	P	f	299.72	1	7	56	4	24	c	j	895.65	1	1000	100	1	0
204	2	7	P	P	d	287.97	1	7	56	3	24	c	j	1006.33	1	1000	1000	0	0
204	2	8	P	P	f	416.76	1	9	24	2	56	i	n	669.6	1	1000	1000	0	0
204	2	9	P	P	f	527.02	1	7	24	4	56	i	n	641.1	1	1000	100	0	0
204	2	10	P	P	f	408.97	1	2	24	8	56	c	n	447.63	1	100	1000	0	0
204	2	11	N	N	f	302.38	0	3	24	9	56	c	n	971.36	1	1000	100	1	0
204	2	12	P	P	d	607.29	1	2	56	9	24	i	n	1527.02	0	100	100	1	0
204	2	13	N	N	d	567.25	0	4	56	9	24	i	n	726.36	1	100	1000	1	1
204	2	14	P	P	f	1905.17	1	8	56	3	24	c	j	1219.06	1	1000	1000	1	0
204	2	15	P	P	f	706.26	1	9	56	4	24	c	j	535.92	1	100	100	0	0
204	2	16	P	P	f	369.9	1	3	56	8	24	i	j	477.53	1	100	100	0	0
204	2	17	N	N	d	510.93	0	2	56	7	24	i	n	518.16	1	1000	1000	1	0
204	2	18	P	P	d	356.71	1	8	56	3	24	c	j	716.8	1	100	100	1	0
204	2	19	N	N	d	518.31	0	7	56	2	24	c	j	1014.43	1	1000	1000	1	0
204	2	20	N	N	d	604.76	0	7	56	3	24	c	j	1074.28	1	1000	100	0	0
204	2	21	P	P	d	430.89	1	4	24	7	56	c	n	1151.29	1	100	100	1	0
204	2	22	N	N	d	692.88	0	8	24	2	56	i	j	572.52	1	1000	1000	1	0
204	2	23	P	P	f	495.64	1	4	56	8	24	i	n	834.6	0	1000	100	1	0
204	2	24	N	N	d	856.15	0	2	56	8	24	i	n	806.15	1	1000	100	1	1
204	2	25	N	N	d	844.34	0	4	24	7	56	c	n	1631.04	1	1000	1000	0	0
204	2	26	P	P	f	536.81	1	8	24	3	56	i	n	1330.45	1	1000	1000	1	0
204	2	27	P	P	f	1381.68	1	4	24	8	56	c	n	678.9	1	100	100	0	0
204	2	28	N	N	d	721.85	0	8	24	3	56	i	j	579.5	1	100	1000	1	0
204	2	29	N	N	f	953.32	0	9	24	4	56	i	n	2423.05	0	100	100	0	0
204	2	30	N	N	d	572.9	0	9	56	2	24	c	j	1503.43	1	1000	1000	0	1
204	2	31	N	N	d	1470.9	0	3	24	7	56	c	n	1207.88	1	1000	100	0	0
204	2	32	N	N	d	463.5	0	2	56	8	24	i	n	655.45	1	1000	100	0	0
204	2	33	P	P	f	991.83	1	9	24	3	56	i	n	907.71	1	100	1000	1	0
204	2	34	N	N	d	598.66	0	4	24	9	56	c	n	613.05	1	100	100	1	0
204	2	35	P	P	f	593.75	1	9	24	3	56	i	n	967.35	1	1000	100	1	0
204	2	36	N	N	d	394.98	0	9	56	4	24	c	j	574.35	1	100	1000	1	0
204	2	37	N	N	f	273.05	0	8	24	3	56	i	j	2246.16	1	1000	100	0	0
204	2	38	P	P	f	980.16	1	7	56	4	24	c	j	519.65	1	100	1000	1	0
204	2	39	P	P	f	841.46	1	8	56	2	24	c	j	841.35	1	1000	100	0	0
204	2	40	N	N	d	577.39	0	7	24	3	56	i	j	742.7	1	100	100	1	0
204	2	41	N	N	d	758.91	0	8	56	4	24	c	j	650.73	1	100	100	0	0
204	2	42	P	P	f	520.19	1	3	24	8	56	c	n	734.44	1	100	1000	1	0
204	2	43	P	P	f	958.33	1	9	24	4	56	i	n	1402.98	1	100	1000	0	0
204	2	44	N	N	d	739.47	0	9	24	3	56	i	j	929.77	1	1000	100	1	0
204	2	45	N	N	d	694.97	0	2	56	8	24	i	n	732.13	1	100	100	0	0
204	2	46	N	N	d	370.1	0	9	24	4	56	i	j	543.75	1	1000	1000	0	0
204	2	47	N	N	d	366.03	0	3	56	7	24	i	n	702.71	1	1000	1000	0	0
204	2	48	P	P	f	638.68	1	9	24	2	56	i	n	997.12	1	100	100	1	0
204	2	49	P	P	f	480.07	1	4	24	7	56	c	n	656.16	1	1000	100	0	0
204	2	50	P	P	f	653.64	1	9	56	3	24	c	j	555.4	1	100	1000	0	0
204	2	51	P	P	f	326.83	1	4	24	8	56	c	n	471.11	1	1000	1000	0	0
204	2	52	N	N	d	663.13	0	2	56	7	24	i	n	724.13	1	100	100	1	0
204	2	53	P	P	f	272.7	1	3	56	8	24	i	n	624.69	0	1000	1000	1	0
204	2	54	P	P	d	249.73	1	2	56	7	24	i	n	1773.25	0	1000	1000	0	1
204	2	55	N	N	d	607.53	0	3	24	7	56	c	n	806.53	1	100	1000	1	1
204	2	56	N	N	d	430.08	0	4	24	7	56	c	n	305.93	1	100	1000	0	0
204	2	57	N	N	d	440.91	0	7	56	2	24	c	j	570.5	1	100	1000	0	0
204	2	58	P	P	f	471.12	1	3	24	9	56	c	n	634.94	1	1000	100	1	0
204	2	59	P	P	f	526.69	1	2	56	7	24	i	n	662.63	0	100	1000	0	0
204	2	60	P	P	f	322.03	1	3	56	9	24	i	j	962.85	1	1000	100	0	1
204	2	61	N	N	d	569.43	0	2	24	8	56	c	n	745.53	1	1000	1000	1	0
204	2	62	N	N	d	345.68	0	4	56	9	24	i	n	642.57	1	100	1000	0	0
204	2	63	N	N	d	736.15	0	7	24	2	56	i	j	801.29	1	100	1000	0	0
204	2	64	P	P	f	694.56	1	3	56	7	24	i	n	956.34	0	100	1000	1	0
204	2	65	P	P	f	1171.87	1	9	24	4	56	i	n	826.51	1	100	100	0	1
204	3	1	N	N	d	655.06	0	8	56	2	24	c	j	635.55	1	1000	100	-1	0
204	3	2	P	P	f	627.55	1	9	56	3	24	c	j	686.43	1	1000	100	1	0
204	3	3	P	P	f	762.29	1	2	24	8	56	c	n	530.14	1	1000	1000	0	0
204	3	4	P	P	f	458.78	1	4	56	8	24	i	n	785.94	0	100	1000	0	0
204	3	5	P	P	f	932.17	1	8	56	2	24	c	j	612.95	1	100	100	0	1
204	3	6	P	P	f	379.33	1	3	24	9	56	c	n	475.05	1	100	100	0	0
204	3	7	N	N	f	386.66	0	4	56	8	24	i	j	2412.26	0	100	100	1	0
204	3	8	N	N	d	546.01	0	7	24	2	56	i	j	4131.25	1	100	1000	0	1
204	3	9	P	P	f	956.47	1	9	24	3	56	i	n	782.52	1	100	1000	1	0
204	3	10	N	N	d	540.12	0	7	56	2	24	c	j	694.39	1	100	100	1	0
204	3	11	P	P	f	546.24	1	4	24	7	56	c	n	801.46	1	100	100	1	0
204	3	12	N	N	d	1729.1	0	3	56	8	24	i	n	586.08	1	1000	100	1	0
204	3	13	N	N	d	639.22	0	9	56	2	24	c	j	434.35	1	100	1000	0	0
204	3	14	P	P	d	316.34	1	3	24	7	56	c	n	421.83	1	1000	1000	1	0
204	3	15	P	P	f	483.91	1	9	56	2	24	c	j	867.28	1	100	1000	0	0
204	3	16	P	P	f	428.91	1	4	24	7	56	c	n	676.62	1	100	1000	0	0
204	3	17	P	P	f	376.02	1	2	56	8	24	i	j	797.48	1	1000	1000	0	0
204	3	18	P	P	f	414.36	1	3	56	7	24	i	j	690.64	1	100	100	0	0
204	3	19	P	P	f	396.61	1	9	24	4	56	i	n	396.67	1	100	100	0	0
204	3	20	N	N	d	728.63	0	3	24	8	56	c	n	484.19	1	1000	1000	1	0
204	3	21	P	P	d	469.21	1	4	56	9	24	i	n	1972.97	0	100	100	1	0
204	3	22	N	N	d	483.84	0	3	56	8	24	i	n	1053.35	1	100	1000	1	1
204	3	23	P	P	f	583.05	1	4	24	7	56	c	n	747.79	1	100	1000	1	0
204	3	24	N	N	d	605.85	0	3	24	8	56	c	n	772.0	1	1000	100	1	0
204	3	25	N	N	d	495.26	0	2	56	8	24	i	n	711.26	1	100	100	0	0
204	3	26	N	N	d	444.52	0	7	56	3	24	c	j	653.34	1	1000	100	0	0
204	3	27	N	N	d	290.42	0	2	24	9	56	c	n	986.07	1	1000	1000	0	0
204	3	28	N	N	d	379.65	0	4	56	9	24	i	n	835.99	1	1000	100	0	0
204	3	29	P	P	d	390.21	1	2	24	8	56	c	n	728.33	1	1000	100	1	0
204	3	30	P	P	f	782.8	1	4	56	7	24	i	j	1154.07	1	1000	100	0	0
204	3	31	P	P	f	773.69	1	8	56	2	24	c	j	692.95	1	1000	1000	0	0
204	3	32	N	N	f	523.49	0	8	24	3	56	i	n	817.79	0	100	1000	1	0
204	3	33	N	N	d	585.48	0	4	24	8	56	c	n	857.83	1	100	1000	0	1
204	3	34	P	P	f	577.53	1	2	56	8	24	i	j	899.0	1	100	1000	1	0
204	3	35	P	P	f	684.99	1	9	24	3	56	i	n	756.06	1	1000	1000	0	0
204	3	36	P	P	f	619.18	1	8	56	2	24	c	j	543.58	1	1000	100	0	0
204	3	37	N	N	d	759.99	0	9	56	4	24	c	j	549.79	1	100	1000	1	0
204	3	38	N	N	d	451.0	0	7	24	3	56	i	n	524.89	0	100	100	0	0
204	3	39	P	P	f	722.81	1	8	56	4	24	c	j	1176.61	1	1000	1000	1	1
204	3	40	N	N	d	622.86	0	9	56	2	24	c	n	1087.64	0	1000	100	1	0
204	3	41	P	P	f	877.11	1	9	56	3	24	c	j	1079.49	1	100	100	1	1
204	3	42	N	N	d	704.01	0	9	24	4	56	i	j	894.67	1	1000	100	1	0
204	3	43	N	N	d	467.26	0	8	56	3	24	c	j	635.99	1	1000	1000	0	0
204	3	44	N	N	d	1077.84	0	4	56	9	24	i	n	1045.39	1	1000	1000	0	0
204	3	45	P	P	f	940.77	1	8	56	3	24	c	j	445.82	1	100	1000	1	0
204	3	46	N	N	d	469.13	0	8	56	4	24	c	j	1138.81	1	1000	1000	1	0
204	3	47	N	N	d	630.56	0	2	24	7	56	c	n	611.4	1	100	100	0	0
204	3	48	N	N	d	377.43	0	7	24	4	56	i	j	888.08	1	1000	1000	0	0
204	3	49	P	P	f	562.04	1	3	56	8	24	i	j	902.27	1	1000	100	1	0
204	3	50	N	N	d	592.91	0	4	56	9	24	i	n	865.21	1	1000	1000	1	0
204	3	51	N	N	d	470.11	0	2	24	8	56	c	n	804.19	1	1000	100	0	0
204	3	52	N	N	d	415.02	0	8	56	4	24	c	j	657.8	1	100	100	0	0
204	3	53	P	P	f	780.0	1	9	24	3	56	i	n	925.91	1	100	100	1	0
204	3	54	N	N	d	554.88	0	2	24	7	56	c	n	804.1	1	100	1000	1	0
204	3	55	N	N	d	640.25	0	8	24	4	56	i	j	1538.26	1	1000	100	0	0
204	3	56	P	P	f	931.95	1	3	56	7	24	i	j	1421.21	1	1000	1000	1	0
204	3	57	N	N	d	695.57	0	7	24	2	56	i	n	744.54	0	1000	1000	1	0
204	3	58	N	N	d	1120.14	0	4	56	8	24	i	n	1454.24	1	100	1000	0	1
204	3	59	P	P	f	650.69	1	8	24	3	56	i	n	1537.88	1	1000	100	1	0
204	3	60	N	N	d	611.01	0	2	24	7	56	c	n	878.5	1	100	100	1	0
204	3	61	P	P	f	895.2	1	7	24	4	56	i	n	777.25	1	1000	1000	1	0
204	3	62	P	P	f	994.83	1	3	24	7	56	c	n	777.44	1	1000	100	0	0
204	3	63	P	P	f	2795.95	1	9	24	4	56	i	n	944.47	1	100	1000	0	0
204	3	64	P	P	f	601.51	1	9	24	3	56	i	n	1240.27	1	1000	100	0	0
204	3	65	N	N	d	609.36	0	9	24	2	56	i	j	561.87	1	100	100	1	0
204	4	1	P	P	f	667.75	1	3	24	7	56	c	n	688.45	1	100	1000	-1	0
204	4	2	N	N	f	574.23	0	2	24	8	56	c	n	1042.01	1	1000	1000	1	0
204	4	3	N	N	d	779.04	0	4	56	9	24	i	n	1047.03	1	1000	1000	0	0
204	4	4	N	N	d	751.41	0	2	56	8	24	i	n	576.07	1	100	100	0	0
204	4	5	P	P	f	308.8	1	3	24	7	56	c	n	943.89	1	1000	100	1	0
204	4	6	N	N	d	567.29	0	4	56	9	24	i	n	1323.61	1	1000	100	1	0
204	4	7	P	P	f	686.68	1	9	56	3	24	c	j	802.69	1	1000	1000	1	0
204	4	8	P	P	f	1156.67	1	4	24	7	56	c	n	548.23	1	100	100	0	0
204	4	9	N	N	d	865.19	0	2	24	9	56	c	n	1331.29	1	100	1000	1	0
204	4	10	P	P	f	583.09	1	4	24	8	56	c	n	1209.92	1	100	100	1	0
204	4	11	N	N	d	510.97	0	2	56	8	24	i	n	607.44	1	100	1000	1	0
204	4	12	P	P	d	756.48	1	3	56	8	24	i	j	2077.63	1	1000	100	1	0
204	4	13	N	N	d	1724.17	0	9	24	4	56	i	j	1290.61	1	1000	100	1	0
204	4	14	P	P	f	766.82	1	8	24	3	56	i	n	837.36	1	1000	1000	1	0
204	4	15	P	P	f	652.37	1	9	56	4	24	c	j	532.34	1	100	100	0	0
204	4	16	P	P	f	538.41	1	3	24	8	56	c	n	535.6	1	1000	100	0	0
204	4	17	N	N	d	639.01	0	7	56	2	24	c	j	1109.49	1	100	100	1	0
204	4	18	N	N	d	577.28	0	4	56	9	24	i	n	1024.76	1	1000	100	0	0
204	4	19	P	P	f	777.9	1	2	56	7	24	i	j	1541.56	1	1000	1000	1	0
204	4	20	P	P	f	587.68	1	4	56	7	24	i	j	489.68	1	100	100	0	0
204	4	21	P	P	f	327.83	1	9	56	3	24	c	j	428.34	1	1000	100	0	0
204	4	22	N	N	f	311.35	0	9	56	2	24	c	j	642.05	1	1000	100	1	0
204	4	23	N	N	d	610.24	0	7	56	4	24	c	j	865.76	1	1000	1000	0	0
204	4	24	P	P	f	719.5	1	2	56	9	24	i	n	724.63	0	100	100	1	0
204	4	25	N	N	d	678.36	0	9	56	3	24	c	j	574.1	1	100	1000	1	1
204	4	26	N	N	d	566.13	0	4	56	9	24	i	n	983.05	1	100	1000	0	0
204	4	27	N	N	d	709.28	0	2	24	8	56	c	n	1338.4	1	100	100	0	0
204	4	28	N	N	d	550.51	0	9	56	4	24	c	j	366.57	1	100	1000	0	0
204	4	29	P	P	f	676.28	1	9	24	3	56	i	n	764.28	1	100	100	1	0
204	4	30	P	P	f	482.02	1	8	56	2	24	c	j	387.45	1	100	1000	0	0
204	4	31	P	P	f	505.09	1	7	24	4	56	i	n	1096.72	1	1000	1000	0	0
204	4	32	P	P	f	501.86	1	7	24	3	56	i	n	701.48	1	1000	100	0	0
204	4	33	P	P	f	361.06	1	2	24	8	56	c	n	517.78	1	1000	1000	0	0
204	4	34	N	N	d	840.03	0	3	56	7	24	i	n	1221.8	1	1000	1000	1	0
204	4	35	N	N	d	1023.52	0	4	24	7	56	c	n	647.84	1	100	1000	0	0
204	4	36	N	N	d	302.06	0	3	24	8	56	c	n	588.19	1	1000	100	0	0
204	4	37	N	N	d	551.47	0	9	24	2	56	i	j	588.32	1	100	100	0	0
204	4	38	P	P	d	316.31	1	3	24	7	56	c	n	308.44	1	100	1000	1	0
204	4	39	P	P	f	802.21	1	2	24	8	56	c	n	385.37	1	100	1000	0	0
204	4	40	P	P	f	369.09	1	4	56	7	24	i	j	441.57	1	100	1000	0	0
204	4	41	N	N	d	589.31	0	3	56	7	24	i	n	782.9	1	100	100	1	0
204	4	42	P	P	f	494.49	1	2	24	9	56	c	n	394.35	1	1000	1000	1	0
204	4	43	N	N	d	530.22	0	9	24	4	56	i	j	835.85	1	100	100	1	0
204	4	44	N	N	d	492.47	0	9	24	3	56	i	j	561.8	1	1000	100	0	0
204	4	45	P	P	d	334.34	1	4	56	9	24	i	n	950.88	0	100	1000	1	0
204	4	46	P	P	f	608.04	1	8	56	2	24	c	j	469.31	1	1000	1000	0	1
204	4	47	N	N	d	661.99	0	3	24	8	56	c	n	452.13	1	100	100	1	0
204	4	48	P	P	f	448.17	1	8	56	4	24	c	j	712.81	1	100	1000	1	0
204	4	49	P	P	f	851.09	1	3	56	7	24	i	n	513.43	0	1000	100	0	0
204	4	50	N	N	d	435.95	0	7	24	4	56	i	j	2107.03	1	1000	1000	1	1
204	4	51	P	P	f	664.45	1	9	24	2	56	i	n	756.87	1	100	1000	1	0
204	4	52	P	P	f	688.45	1	9	24	4	56	i	n	1108.26	1	100	1000	0	0
204	4	53	P	P	f	610.07	1	3	56	9	24	i	j	437.63	1	1000	1000	0	0
204	4	54	N	N	d	720.08	0	7	24	4	56	i	j	982.21	1	100	1000	1	0
204	4	55	P	P	f	898.37	1	8	56	2	24	c	j	2322.22	1	1000	100	1	0
204	4	56	N	N	d	2879.09	0	8	56	3	24	c	j	1010.64	1	1000	1000	1	0
204	4	57	N	N	d	376.98	0	9	56	2	24	c	j	674.46	1	1000	100	0	0
204	4	58	N	N	d	453.62	0	8	24	4	56	i	j	1286.85	1	100	1000	0	0
204	4	59	N	N	d	751.81	0	9	56	3	24	c	j	543.31	1	100	100	0	0
204	4	60	P	P	f	567.98	1	7	56	2	24	c	j	502.67	1	100	100	1	0
204	4	61	P	P	f	415.13	1	8	24	4	56	i	n	454.71	1	100	100	0	0
204	4	62	N	N	d	450.22	0	2	24	7	56	c	n	557.84	1	1000	100	1	0
204	4	63	N	N	d	316.97	0	9	24	4	56	i	j	378.22	1	1000	1000	0	0
204	4	64	N	N	d	793.57	0	2	24	9	56	c	n	595.63	1	1000	1000	0	0
204	4	65	P	P	f	569.67	1	7	24	3	56	i	n	488.14	1	1000	100	1	0
204	5	1	N	N	d	665.29	0	8	24	4	56	i	n	610.85	0	100	1000	-1	0
204	5	2	P	P	f	703.89	1	2	56	8	24	i	j	487.89	1	100	1000	1	1
204	5	3	P	P	f	597.04	1	8	24	3	56	i	n	824.38	1	100	100	0	0
204	5	4	P	P	f	430.19	1	2	56	8	24	i	j	408.29	1	1000	100	0	0
204	5	5	N	N	d	217.75	0	9	24	3	56	i	j	456.45	1	1000	1000	1	0
204	5	6	N	N	d	395.89	0	2	56	9	24	i	j	316.99	0	100	1000	0	0
204	5	7	P	P	f	610.07	1	8	56	3	24	c	j	1135.34	1	100	100	1	1
204	5	8	N	N	d	486.93	0	8	56	4	24	c	j	554.89	1	100	1000	1	0
204	5	9	N	N	d	381.88	0	9	24	2	56	i	j	747.8	1	1000	100	0	0
204	5	10	N	N	d	458.91	0	4	24	9	56	c	n	775.34	1	1000	100	0	0
204	5	11	N	N	d	398.15	0	9	56	3	24	c	j	498.9	1	100	1000	0	0
204	5	12	P	P	d	274.85	1	4	56	8	24	i	j	886.59	1	1000	1000	1	0
204	5	13	P	P	f	774.64	1	2	56	8	24	i	j	705.61	1	100	1000	0	0
204	5	14	P	P	f	528.99	1	4	24	8	56	c	j	1025.57	0	1000	100	0	0
204	5	15	N	N	d	2659.68	0	2	56	9	24	i	n	964.27	1	100	100	1	1
204	5	16	N	N	d	5296.79	0	7	56	4	24	c	j	728.38	1	1000	1000	0	0
204	5	17	P	P	f	1851.47	1	9	24	3	56	i	n	794.03	1	1000	100	1	0
204	5	18	N	N	d	501.55	0	4	24	9	56	c	n	643.82	1	100	100	1	0
204	5	19	N	N	d	680.66	0	9	24	3	56	i	j	1161.93	1	100	1000	0	0
204	5	20	N	N	d	2301.61	0	2	56	8	24	i	n	995.02	1	1000	1000	0	0
204	5	21	N	N	d	501.39	0	9	24	3	56	i	j	700.95	1	100	100	0	0
204	5	22	P	P	f	956.96	1	4	56	7	24	i	j	1560.13	1	1000	100	1	0
204	5	23	N	N	d	1973.26	0	3	56	9	24	i	n	782.44	1	100	1000	1	0
204	5	24	P	P	f	1427.77	1	9	24	4	56	i	n	887.32	1	1000	1000	1	0
204	5	25	P	P	f	539.59	1	9	24	3	56	i	n	726.37	1	100	1000	0	0
204	5	26	P	P	f	319.13	1	2	56	7	24	i	j	1904.61	1	1000	1000	0	0
204	5	27	P	P	f	1421.04	1	9	24	4	56	i	n	791.13	1	1000	1000	0	0
204	5	28	P	P	f	328.41	1	8	56	2	24	c	j	1137.56	1	1000	1000	0	0
204	5	29	N	N	d	786.98	0	7	56	4	24	c	j	589.89	1	100	100	1	0
204	5	30	P	P	f	630.8	1	3	24	8	56	c	n	700.91	1	1000	100	1	0
204	5	31	P	P	f	502.91	1	7	24	2	56	i	n	668.01	1	1000	100	0	0
204	5	32	P	P	f	551.56	1	8	56	4	24	c	j	542.85	1	1000	100	0	0
204	5	33	P	P	f	489.32	1	8	56	3	24	c	j	457.3	1	100	100	0	0
204	5	34	P	P	f	486.92	1	4	56	8	24	i	j	792.52	1	100	100	0	0
204	5	35	P	P	f	375.62	1	7	56	2	24	c	j	628.45	1	100	1000	0	0
204	5	36	N	N	f	298.8	0	3	56	7	24	i	n	1546.7	1	1000	100	1	0
204	5	37	N	N	d	469.09	0	8	56	4	24	c	j	668.01	1	100	100	0	0
204	5	38	P	P	f	637.41	1	3	24	7	56	c	n	1477.67	1	1000	1000	1	0
204	5	39	N	N	d	679.87	0	9	24	4	56	i	j	913.49	1	1000	100	1	0
204	5	40	N	N	d	346.39	0	8	24	3	56	i	j	733.1	1	1000	1000	0	0
204	5	41	N	N	d	349.43	0	4	56	9	24	i	n	535.08	1	100	100	0	0
204	5	42	P	P	d	312.5	1	7	24	2	56	i	j	1161.79	0	100	100	1	0
204	5	43	N	N	d	749.64	0	9	24	3	56	i	j	533.97	1	100	100	1	1
204	5	44	P	P	f	491.09	1	8	56	2	24	c	j	469.62	1	100	1000	1	0
204	5	45	N	N	d	357.97	0	4	56	7	24	i	n	739.07	1	1000	1000	1	0
204	5	46	N	N	f	259.43	0	3	56	8	24	i	j	2058.53	0	1000	100	0	0
204	5	47	P	P	f	609.9	1	2	24	9	56	c	n	866.78	1	100	100	1	1
204	5	48	N	N	d	563.06	0	4	24	8	56	c	n	576.12	1	100	1000	1	0
204	5	49	N	N	d	409.15	0	2	24	7	56	c	n	561.88	1	100	100	0	0
204	5	50	P	P	f	908.45	1	3	24	8	56	c	n	1020.61	1	100	1000	1	0
204	5	51	P	P	f	651.14	1	4	24	8	56	c	n	970.64	1	100	100	0	0
204	5	52	P	P	f	359.06	1	3	24	9	56	c	n	335.11	1	100	1000	0	0
204	5	53	N	N	f	436.26	0	7	24	4	56	i	j	1668.38	1	100	1000	1	0
204	5	54	P	P	f	801.22	1	8	24	3	56	i	n	1647.42	1	100	1000	1	0
204	5	55	N	N	d	886.27	0	9	56	2	24	c	j	825.1	1	1000	100	1	0
204	5	56	P	P	f	678.77	1	4	56	8	24	i	j	711.15	1	100	100	1	0
204	5	57	N	N	d	408.54	0	3	24	9	56	c	n	505.67	1	1000	1000	1	0
204	5	58	N	N	d	552.38	0	4	24	9	56	c	n	757.26	1	100	1000	0	0
204	5	59	N	N	d	428.23	0	3	24	8	56	c	n	484.75	1	1000	1000	0	0
204	5	60	N	N	d	480.34	0	8	56	2	24	c	j	577.55	1	1000	100	0	0
204	5	61	P	P	f	443.57	1	8	56	3	24	c	j	562.0	1	1000	1000	1	0
204	5	62	N	N	d	626.51	0	2	24	9	56	c	n	505.54	1	1000	100	1	0
204	5	63	P	P	f	354.52	1	9	56	4	24	c	j	861.19	1	1000	100	1	0
204	5	64	P	P	d	253.23	1	2	24	7	56	c	n	588.92	1	1000	1000	0	0
204	5	65	N	N	d	528.67	0	9	56	4	24	c	j	777.69	1	1000	1000	1	0
204	6	1	P	P	f	2164.44	1	8	24	4	56	i	n	811.64	1	100	1000	-1	0
204	6	2	P	P	f	557.9	1	7	24	2	56	i	n	482.28	1	100	100	0	0
204	6	3	P	P	f	370.44	1	7	56	4	24	c	j	511.04	1	1000	100	0	0
204	6	4	P	P	f	568.15	1	8	56	2	24	c	j	643.45	1	1000	1000	0	0
204	6	5	P	P	f	523.51	1	4	56	9	24	i	j	715.12	1	100	1000	0	0
204	6	6	N	N	f	337.37	0	2	56	9	24	i	j	567.01	0	100	1000	1	0
204	6	7	P	P	f	686.21	1	4	24	9	56	c	n	453.87	1	1000	100	1	1
204	6	8	P	P	f	392.86	1	3	24	9	56	c	n	448.61	1	1000	1000	0	0
204	6	9	P	P	f	290.87	1	4	56	8	24	i	j	853.43	1	1000	100	0	0
204	6	10	N	N	d	673.23	0	2	24	7	56	c	n	500.35	1	1000	100	1	0
204	6	11	P	P	f	504.05	1	3	24	7	56	c	n	375.48	1	100	1000	1	0
204	6	12	N	N	d	567.2	0	8	24	2	56	i	j	569.32	1	100	1000	1	0
204	6	13	N	N	d	717.64	0	3	56	7	24	i	n	534.33	1	1000	1000	0	0
204	6	14	N	N	d	514.93	0	4	24	8	56	c	n	375.0	1	100	1000	0	0
204	6	15	P	P	f	1106.94	1	8	56	2	24	c	j	624.99	1	100	1000	1	0
204	6	16	P	P	f	409.25	1	3	24	9	56	c	n	571.6	1	100	1000	0	0
204	6	17	N	N	d	641.32	0	9	24	2	56	i	j	549.94	1	100	100	1	0
204	6	18	N	N	d	472.93	0	7	24	3	56	i	j	558.39	1	1000	100	0	0
204	6	19	P	P	f	544.53	1	2	56	7	24	i	j	1204.7	1	100	100	1	0
204	6	20	P	P	f	853.26	1	3	24	7	56	c	n	1072.94	1	1000	100	0	0
204	6	21	N	N	d	553.22	0	2	56	9	24	i	j	656.37	0	100	100	1	0
204	6	22	N	N	d	1228.18	0	4	24	9	56	c	n	450.93	1	100	100	0	1
204	6	23	N	N	d	699.34	0	7	56	3	24	c	j	770.15	1	1000	100	0	0
204	6	24	N	N	d	402.99	0	8	56	4	24	c	j	554.89	1	1000	1000	0	0
204	6	25	P	P	f	721.01	1	2	24	9	56	c	n	1175.13	1	100	100	1	0
204	6	26	P	P	f	453.13	1	7	56	4	24	c	j	566.08	1	100	1000	0	0
204	6	27	N	N	f	359.8	0	7	24	2	56	i	n	1011.25	0	1000	1000	1	0
204	6	28	N	N	d	569.09	0	4	56	9	24	i	n	1656.39	1	100	1000	0	1
204	6	29	N	N	d	596.4	0	2	56	9	24	i	n	745.3	1	1000	100	0	0
204	6	30	P	P	d	333.54	1	4	24	9	56	c	n	455.73	1	1000	1000	1	0
204	6	31	N	N	d	687.53	0	8	56	2	24	c	j	725.26	1	100	100	1	0
204	6	32	P	P	f	578.12	1	8	24	3	56	i	n	889.6	1	100	100	1	0
204	6	33	P	P	f	451.34	1	2	56	7	24	i	j	464.26	1	100	100	0	0
204	6	34	P	P	f	504.37	1	8	24	4	56	i	n	388.13	1	100	1000	0	0
204	6	35	N	N	d	821.11	0	8	56	3	24	c	j	566.63	1	1000	1000	1	0
204	6	36	N	N	d	539.97	0	4	24	7	56	c	n	660.4	1	1000	100	0	0
204	6	37	N	N	d	478.9	0	7	24	3	56	i	n	765.59	0	100	1000	0	0
204	6	38	N	N	d	1305.97	0	8	56	2	24	c	j	555.87	1	100	1000	0	1
204	6	39	N	N	d	371.92	0	9	24	4	56	i	j	872.05	1	1000	1000	0	0
204	6	40	P	P	f	438.25	1	7	56	3	24	c	j	558.04	1	1000	100	1	0
204	6	41	N	N	d	610.15	0	8	24	4	56	i	j	1079.55	1	1000	100	1	0
204	6	42	N	N	d	435.93	0	2	56	9	24	i	n	465.45	1	100	100	0	0
204	6	43	N	N	d	550.29	0	3	24	7	56	c	n	769.9	1	1000	1000	0	0
204	6	44	P	P	f	696.24	1	8	24	4	56	i	n	712.04	1	1000	100	1	0
204	6	45	N	N	d	691.85	0	7	56	3	24	c	j	955.03	1	1000	100	1	0
204	6	46	P	P	f	697.49	1	8	24	2	56	i	n	1859.27	1	100	1000	1	0
204	6	47	N	N	d	768.48	0	7	56	3	24	c	j	597.82	1	100	1000	1	0
204	6	48	P	P	d	673.75	1	2	56	7	24	i	n	1413.65	0	1000	100	1	0
204	6	49	N	N	d	1606.61	0	3	24	9	56	c	n	1885.11	1	100	100	1	1
204	6	50	P	P	f	1091.43	1	2	56	9	24	i	j	840.72	1	1000	1000	1	0
204	6	51	P	P	f	914.0	1	4	24	9	56	c	n	532.76	1	100	100	0	0
204	6	52	P	P	f	438.18	1	7	56	2	24	c	j	466.72	1	100	100	0	0
204	6	53	N	N	d	614.6	0	3	56	9	24	i	j	938.82	0	1000	100	1	0
204	6	54	P	P	f	551.66	1	2	56	9	24	i	j	935.84	1	100	1000	1	1
204	6	55	P	P	f	514.26	1	8	24	3	56	i	n	724.21	1	1000	1000	0	0
204	6	56	P	P	f	1699.94	1	8	24	2	56	i	n	860.64	1	1000	100	0	0
204	6	57	N	N	d	544.73	0	3	24	7	56	c	n	496.26	1	100	1000	1	0
204	6	58	P	P	f	560.49	1	8	56	4	24	c	j	1339.28	1	100	100	1	0
204	6	59	N	N	d	713.13	0	3	24	8	56	c	n	801.32	1	1000	1000	1	0
204	6	60	P	P	f	3574.33	1	7	56	2	24	c	j	1073.01	1	1000	1000	1	0
204	6	61	N	N	d	697.68	0	3	56	9	24	i	n	780.25	1	1000	1000	1	0
204	6	62	N	N	d	908.77	0	7	24	2	56	i	j	1066.56	1	100	100	0	0
204	6	63	N	N	d	563.75	0	7	56	3	24	c	j	700.92	1	100	100	0	0
204	6	64	P	P	f	1013.44	1	7	24	2	56	i	n	1193.88	1	1000	1000	1	0
204	6	65	P	P	f	680.32	1	4	56	9	24	i	j	1014.54	1	1000	1000	0	0
