subj	block	trial	task_cue	task	choice_resp	choiceRT	choice_acc	topnum	topsize	botnum	botsize	cong	task_resp	taskRT	task_acc	RSI	CSI	altRep	E1
208	1	1	P	P	d	1611.04	1	3	24	7	56	c	n	6603.33	1	1000	1000	-1	0
208	1	2	N	N	f	468.64	0	8	56	2	24	c	j	858.31	1	1000	100	1	0
208	1	3	N	N	f	1061.64	0	9	56	3	24	c	j	754.59	1	100	100	0	0
208	1	4	N	N	f	572.96	0	7	24	2	56	i	j	872.67	1	1000	1000	0	0
208	1	5	P	P	d	1790.53	1	7	56	4	24	c	j	636.26	1	100	1000	1	0
208	1	6	N	N	f	953.18	0	7	24	2	56	i	j	1073.82	1	1000	100	1	0
208	1	7	P	P	d	1069.73	1	4	56	9	24	i	n	958.65	0	1000	1000	1	0
208	1	8	P	P	d	858.78	1	3	24	9	56	c	n	673.5	1	100	100	0	1
208	1	9	N	N	f	474.62	0	2	56	9	24	i	n	1818.79	1	1000	1000	1	0
208	1	10	P	P	d	1026.2	1	4	56	8	24	i	j	1472.05	1	100	1000	1	0
208	1	11	N	N	f	854.67	0	2	56	7	24	i	n	634.63	1	100	1000	1	0
208	1	12	N	N	f	1109.8	0	9	56	4	24	c	j	1518.49	1	1000	100	0	0
208	1	13	P	P	d	1653.76	1	8	24	3	56	i	n	1477.74	1	1000	100	1	0
208	1	14	P	P	d	780.92	1	4	56	9	24	i	j	3771.94	1	1000	1000	0	0
208	1	15	P	P	d	1269.38	1	3	56	9	24	i	j	2669.72	1	100	100	0	0
208	1	16	N	N	f	608.44	0	8	56	4	24	c	j	819.86	1	100	100	1	0
208	1	17	N	N	f	954.31	0	3	24	7	56	c	n	1039.71	1	100	1000	0	0
208	1	18	P	P	d	653.15	1	2	24	9	56	c	n	3863.16	1	1000	100	1	0
208	1	19	P	P	d	701.28	1	7	24	3	56	i	n	1982.28	1	1000	1000	0	0
208	1	20	N	N	f	773.41	0	8	24	4	56	i	j	2302.31	1	1000	1000	1	0
208	1	21	P	P	d	631.8	1	7	56	3	24	c	j	3942.06	1	100	100	1	0
208	1	22	N	N	f	597.15	0	2	24	7	56	c	n	1635.01	1	100	100	1	0
208	1	23	P	P	d	834.43	1	4	56	8	24	i	j	1323.41	1	100	100	1	0
208	1	24	P	P	d	879.18	1	8	56	3	24	c	j	934.7	1	100	1000	0	0
208	1	25	P	P	d	716.46	1	4	24	8	56	c	n	724.43	1	1000	1000	0	0
208	1	26	N	N	f	723.12	0	9	56	3	24	c	j	490.4	1	100	1000	1	0
208	1	27	P	P	d	767.51	1	7	24	4	56	i	n	2713.76	1	100	100	1	0
208	1	28	P	P	d	534.36	1	8	56	3	24	c	j	1567.08	1	1000	100	0	0
208	1	29	P	P	d	2137.48	1	8	24	2	56	i	j	1466.56	0	100	100	0	0
208	1	30	N	N	f	4105.25	0	4	24	9	56	c	n	5368.99	1	1000	100	1	1
208	1	31	N	N	f	717.98	0	2	56	7	24	i	n	2521.58	1	100	1000	0	0
208	1	32	N	N	f	604.93	0	8	24	4	56	i	j	1345.07	1	1000	100	0	0
208	1	33	N	N	f	659.41	0	7	24	3	56	i	j	2992.08	1	100	100	0	0
208	1	34	N	N	f	552.6	0	2	56	9	24	i	n	1027.35	1	100	100	0	0
208	1	35	P	P	d	478.02	1	9	24	3	56	i	n	1215.13	1	1000	1000	1	0
208	1	36	P	P	d	717.67	1	9	56	4	24	c	j	3359.22	1	1000	1000	0	0
208	1	37	P	P	d	485.78	1	8	24	2	56	i	j	1082.72	0	100	1000	0	0
208	1	38	N	N	f	1134.8	0	8	56	3	24	c	j	2927.0	1	1000	1000	1	1
208	1	39	P	P	d	531.26	1	2	24	7	56	c	n	1139.58	1	1000	1000	1	0
208	1	40	N	N	f	1249.49	0	3	24	7	56	c	n	1197.17	1	1000	1000	1	0
208	1	41	P	P	d	627.35	1	2	24	9	56	c	n	2823.99	1	100	100	1	0
208	1	42	P	P	d	617.93	1	3	24	7	56	c	n	1691.12	1	1000	100	0	0
208	1	43	P	P	d	607.87	1	4	56	7	24	i	j	707.18	1	1000	100	0	0
208	1	44	P	P	d	654.46	1	2	56	8	24	i	j	635.24	1	100	1000	0	0
208	1	45	N	N	f	796.55	0	3	24	9	56	c	n	1598.97	1	100	1000	1	0
208	1	46	N	N	f	436.72	0	2	56	9	24	i	n	948.53	1	1000	1000	0	0
208	1	47	P	P	d	594.8	1	7	56	3	24	c	j	4692.04	1	1000	1000	1	0
208	1	48	P	P	d	562.06	1	7	56	2	24	c	j	733.84	1	100	100	0	0
208	1	49	N	N	f	699.22	0	7	24	3	56	i	j	1074.2	1	100	100	1	0
208	1	50	P	P	d	428.6	1	9	56	2	24	c	j	1015.67	1	1000	100	1	0
208	1	51	N	N	f	1293.08	0	8	24	3	56	i	j	1381.58	1	100	1000	1	0
208	1	52	N	N	f	717.09	0	4	24	9	56	c	n	4935.25	1	1000	100	0	0
208	1	53	N	N	f	761.74	0	3	24	7	56	c	n	979.54	1	1000	1000	0	0
208	1	54	N	N	f	592.65	0	7	24	2	56	i	j	842.08	1	100	1000	0	0
208	1	55	N	N	f	1488.49	0	3	56	7	24	i	n	781.77	1	1000	100	0	0
208	1	56	N	N	f	909.18	0	8	56	4	24	c	j	886.98	1	1000	1000	0	0
208	1	57	P	P	d	763.61	1	8	24	3	56	i	n	610.49	1	100	1000	1	0
208	1	58	N	N	f	623.86	0	2	56	8	24	i	n	1718.02	1	1000	100	1	0
208	1	59	N	N	f	935.35	0	3	24	7	56	c	n	1173.46	1	100	100	0	0
208	1	60	P	P	d	641.85	1	4	24	7	56	c	n	1111.47	1	100	1000	1	0
208	1	61	P	P	d	557.86	1	2	24	8	56	c	n	739.55	1	100	1000	0	0
208	1	62	N	N	f	812.19	0	4	56	7	24	i	n	1576.67	1	100	100	1	0
208	1	63	N	N	f	836.89	0	9	56	2	24	c	j	1229.6	1	100	1000	0	0
208	1	64	P	P	d	412.26	1	3	56	7	24	i	n	947.06	0	1000	100	1	0
208	1	65	P	P	d	1178.42	1	7	24	2	56	i	n	1047.51	1	1000	100	0	1
208	2	1	N	N	f	1324.18	0	8	24	3	56	i	j	4855.91	1	1000	100	-1	0
208	2	2	N	N	f	817.41	0	4	24	8	56	c	n	1402.14	1	1000	100	0	0
208	2	3	N	N	f	895.84	0	2	56	8	24	i	n	2545.56	1	1000	100	0	0
208	2	4	N	N	f	601.45	0	8	24	3	56	i	j	1218.2	1	100	100	0	0
208	2	5	P	P	d	956.31	1	9	56	4	24	c	j	6205.65	1	1000	1000	1	0
208	2	6	N	N	f	675.93	0	2	56	9	24	i	n	1427.88	1	100	100	1	0
208	2	7	N	N	f	510.7	0	8	24	4	56	i	j	1767.13	1	1000	100	0	0
208	2	8	P	P	d	539.08	1	9	56	2	24	c	j	2302.5	1	1000	100	1	0
208	2	9	N	N	f	1273.2	0	7	56	3	24	c	j	940.62	1	100	100	1	0
208	2	10	N	N	f	733.96	0	2	24	8	56	c	n	783.33	1	100	100	0	0
208	2	11	P	P	d	708.87	1	3	24	7	56	c	n	2080.67	1	100	100	1	0
208	2	12	N	N	f	873.25	0	8	56	2	24	c	j	2346.98	1	1000	100	1	0
208	2	13	N	N	f	626.88	0	3	56	9	24	i	n	1068.67	1	100	100	0	0
208	2	14	N	N	f	840.24	0	4	56	7	24	i	n	1019.13	1	1000	1000	0	0
208	2	15	N	N	f	717.81	0	2	24	9	56	c	n	1108.56	1	100	1000	0	0
208	2	16	N	N	f	645.55	0	7	24	4	56	i	j	1046.83	1	100	1000	0	0
208	2	17	P	P	d	559.42	1	2	24	7	56	c	n	2811.04	1	1000	1000	1	0
208	2	18	P	P	d	419.84	1	7	56	4	24	c	j	3299.93	1	1000	1000	0	0
208	2	19	N	N	f	570.83	0	2	24	9	56	c	n	881.97	1	1000	1000	1	0
208	2	20	N	N	f	673.98	0	7	56	3	24	c	j	2212.42	1	100	1000	0	0
208	2	21	P	P	d	905.07	1	4	56	8	24	i	j	1377.82	1	1000	1000	1	0
208	2	22	P	P	d	859.81	1	2	24	9	56	c	n	5062.64	1	1000	100	0	0
208	2	23	P	P	d	451.98	1	4	56	7	24	i	j	1217.57	1	1000	1000	0	0
208	2	24	P	P	d	675.24	1	2	56	9	24	i	j	921.06	1	1000	100	0	0
208	2	25	N	N	f	550.84	0	8	24	3	56	i	j	838.38	1	1000	1000	1	0
208	2	26	P	P	d	664.53	1	8	24	4	56	i	n	2376.89	1	100	1000	1	0
208	2	27	N	N	f	690.38	0	3	24	7	56	c	n	2425.61	1	100	1000	1	0
208	2	28	P	P	d	1891.85	1	7	24	4	56	i	n	1030.93	1	1000	1000	1	0
208	2	29	P	P	d	750.94	1	2	24	7	56	c	n	1543.3	1	1000	1000	0	0
208	2	30	P	P	d	769.4	1	7	24	3	56	i	n	1003.92	1	100	1000	0	0
208	2	31	N	N	f	629.37	0	4	56	8	24	i	n	732.15	1	100	1000	1	0
208	2	32	N	N	f	844.0	0	3	56	7	24	i	n	2327.82	1	100	1000	0	0
208	2	33	N	N	f	712.82	0	7	24	2	56	i	j	8124.99	1	1000	1000	0	0
208	2	34	P	P	d	484.33	1	4	56	8	24	i	j	1182.85	1	100	1000	1	0
208	2	35	N	N	f	1990.97	0	3	56	7	24	i	n	4629.69	1	1000	1000	1	0
208	2	36	P	P	d	937.7	1	4	24	9	56	c	n	680.03	1	100	1000	1	0
208	2	37	N	N	f	366.87	0	8	24	2	56	i	j	727.91	1	1000	100	1	0
208	2	38	P	P	d	524.12	1	4	56	7	24	i	j	604.64	1	100	100	1	0
208	2	39	N	N	f	483.79	0	8	24	2	56	i	j	862.43	1	100	100	1	0
208	2	40	N	N	f	682.55	0	9	56	3	24	c	j	589.12	1	1000	1000	0	0
208	2	41	P	P	d	1441.8	1	9	56	2	24	c	j	829.39	1	100	100	1	0
208	2	42	P	P	d	424.93	1	9	56	4	24	c	j	470.5	1	100	100	0	0
208	2	43	N	N	f	674.8	0	8	56	3	24	c	j	1021.1	1	100	1000	1	0
208	2	44	N	N	f	629.34	0	8	56	4	24	c	j	722.77	1	100	100	0	0
208	2	45	N	N	f	483.95	0	3	24	8	56	c	n	580.61	1	1000	1000	0	0
208	2	46	N	N	f	649.47	0	9	56	2	24	c	j	568.29	1	1000	100	0	0
208	2	47	P	P	d	717.84	1	8	56	4	24	c	j	534.86	1	100	1000	1	0
208	2	48	P	P	d	593.43	1	9	56	3	24	c	j	809.9	1	100	1000	0	0
208	2	49	P	P	d	466.04	1	2	56	9	24	i	n	962.46	0	100	100	0	0
208	2	50	N	N	f	1368.55	0	4	24	9	56	c	n	1278.64	1	1000	100	1	1
208	2	51	P	P	d	951.49	1	3	24	9	56	c	n	648.37	1	1000	100	1	0
208	2	52	P	P	d	460.29	1	4	24	9	56	c	n	439.35	1	100	100	0	0
208	2	53	N	N	f	699.07	0	9	24	2	56	i	j	1613.28	1	100	1000	1	0
208	2	54	P	P	d	738.03	1	3	56	8	24	i	j	1018.59	1	1000	100	1	0
208	2	55	P	P	d	615.8	1	9	24	4	56	i	n	1096.63	1	100	100	0	0
208	2	56	N	N	f	559.18	0	2	56	9	24	i	n	1225.68	1	1000	100	1	0
208	2	57	P	P	d	611.39	1	8	24	4	56	i	n	1305.69	1	100	100	1	0
208	2	58	N	N	f	584.96	0	8	56	2	24	c	j	1678.57	1	1000	1000	1	0
208	2	59	P	P	d	444.03	1	7	24	3	56	i	n	5255.21	1	1000	100	1	0
208	2	60	P	P	d	730.92	1	7	24	2	56	i	n	1466.56	1	1000	100	0	0
208	2	61	P	P	d	527.45	1	8	24	3	56	i	n	4657.73	1	1000	1000	0	0
208	2	62	P	P	d	494.45	1	4	56	9	24	i	j	1023.75	1	100	1000	0	0
208	2	63	P	P	d	529.7	1	8	56	3	24	c	j	1094.62	1	1000	100	0	0
208	2	64	P	P	d	602.59	1	4	24	9	56	c	n	823.77	1	100	1000	0	0
208	2	65	N	N	f	858.16	0	3	24	7	56	c	n	931.53	1	100	100	1	0
208	3	1	N	N	f	774.71	0	4	56	9	24	i	n	6602.01	1	100	100	-1	0
208	3	2	N	N	f	861.09	0	7	56	2	24	c	j	1384.89	1	1000	100	0	0
208	3	3	N	N	f	463.19	0	4	56	9	24	i	n	689.57	1	100	100	0	0
208	3	4	N	N	f	406.27	0	2	24	9	56	c	n	783.54	1	100	1000	0	0
208	3	5	P	P	d	676.27	1	9	56	4	24	c	j	965.69	1	100	1000	1	0
208	3	6	P	P	d	358.29	1	8	56	2	24	c	j	1775.15	1	1000	1000	0	0
208	3	7	P	P	d	530.78	1	3	56	9	24	i	j	959.71	1	1000	1000	0	0
208	3	8	P	P	d	510.9	1	8	24	4	56	i	n	979.06	1	100	1000	0	0
208	3	9	P	P	d	759.94	1	8	24	2	56	i	n	922.69	1	1000	100	0	0
208	3	10	N	N	d	564.15	0	4	56	9	24	i	j	4941.66	0	100	1000	1	0
208	3	11	P	P	d	843.5	1	7	56	3	24	c	j	2991.87	1	100	100	1	1
208	3	12	P	P	d	484.73	1	4	24	8	56	c	n	10206.51	1	1000	1000	0	0
208	3	13	P	P	d	772.03	1	2	24	9	56	c	n	2886.25	1	1000	100	0	0
208	3	14	N	N	f	945.91	0	9	56	4	24	c	j	880.61	1	100	100	1	0
208	3	15	P	P	d	491.25	1	8	24	2	56	i	n	5668.77	1	1000	100	1	0
208	3	16	P	P	d	481.03	1	3	56	7	24	i	j	725.24	1	100	100	0	0
208	3	17	N	N	f	3907.52	0	4	24	8	56	c	n	1893.86	1	100	1000	1	0
208	3	18	N	N	f	590.48	0	2	56	9	24	i	n	1368.2	1	100	1000	0	0
208	3	19	P	P	d	529.9	1	3	24	8	56	c	n	711.28	1	1000	100	1	0
208	3	20	N	N	f	625.07	0	4	24	7	56	c	n	774.66	1	1000	100	1	0
208	3	21	N	N	f	767.73	0	8	24	2	56	i	j	793.29	1	1000	1000	0	0
208	3	22	P	P	d	523.69	1	9	24	4	56	i	n	547.51	1	100	100	1	0
208	3	23	N	N	f	595.33	0	9	56	2	24	c	j	1193.62	1	100	1000	1	0
208	3	24	N	N	f	567.26	0	8	56	4	24	c	j	794.56	1	100	100	0	0
208	3	25	P	P	d	558.62	1	3	56	8	24	i	j	898.17	1	100	100	1	0
208	3	26	N	N	f	661.62	0	2	56	8	24	i	n	3050.07	1	1000	1000	1	0
208	3	27	N	N	f	560.06	0	8	24	3	56	i	j	810.55	1	100	100	0	0
208	3	28	P	P	d	770.24	1	8	56	2	24	c	j	757.97	1	1000	100	1	0
208	3	29	P	P	d	464.25	1	8	56	3	24	c	j	510.99	1	100	100	0	0
208	3	30	N	N	f	489.8	0	7	56	2	24	c	j	963.76	1	1000	100	1	0
208	3	31	P	P	d	650.01	1	4	24	9	56	c	n	1199.14	1	100	100	1	0
208	3	32	N	N	f	583.87	0	8	56	3	24	c	j	1862.47	1	1000	1000	1	0
208	3	33	P	P	d	636.86	1	8	24	2	56	i	n	1735.92	1	100	1000	1	0
208	3	34	P	P	d	491.85	1	4	56	8	24	i	j	886.27	1	100	1000	0	0
208	3	35	P	P	d	1021.96	1	3	24	7	56	c	n	636.16	1	100	100	0	0
208	3	36	P	P	d	763.49	1	8	56	2	24	c	j	744.75	1	100	1000	0	0
208	3	37	N	N	f	614.78	0	7	24	4	56	i	j	792.2	1	100	100	1	0
208	3	38	N	N	f	610.6	0	3	24	8	56	c	n	3881.18	1	1000	1000	0	0
208	3	39	N	N	f	377.13	0	8	24	2	56	i	j	720.74	1	1000	100	0	0
208	3	40	P	P	d	606.0	1	3	56	8	24	i	j	894.94	1	1000	1000	1	0
208	3	41	N	N	f	658.41	0	9	24	4	56	i	j	1110.88	1	1000	1000	1	0
208	3	42	N	N	f	759.47	0	2	24	8	56	c	n	742.04	1	100	100	0	0
208	3	43	N	N	f	622.58	0	8	24	4	56	i	j	1660.74	1	100	1000	0	0
208	3	44	N	N	f	566.31	0	3	56	7	24	i	n	1210.29	1	1000	100	0	0
208	3	45	P	P	d	532.98	1	4	24	7	56	c	n	871.14	1	1000	1000	1	0
208	3	46	N	N	f	561.41	0	3	24	9	56	c	n	1001.66	1	1000	1000	1	0
208	3	47	P	P	d	672.23	1	4	56	7	24	i	j	601.78	1	100	1000	1	0
208	3	48	P	P	d	728.41	1	2	56	8	24	i	j	620.11	1	1000	100	0	0
208	3	49	N	N	f	482.04	0	3	24	9	56	c	n	928.48	1	100	100	1	0
208	3	50	N	N	f	760.06	0	8	56	4	24	c	j	1754.9	1	100	1000	0	0
208	3	51	P	P	d	583.48	1	2	56	9	24	i	j	1097.29	1	1000	100	1	0
208	3	52	N	N	f	525.28	0	8	24	4	56	i	j	1304.04	1	1000	100	1	0
208	3	53	N	N	f	751.94	0	7	56	2	24	c	j	2420.36	1	1000	1000	0	0
208	3	54	N	N	f	637.8	0	3	56	9	24	i	n	1006.12	1	1000	1000	0	0
208	3	55	P	P	d	630.84	1	4	24	8	56	c	n	1173.58	1	100	1000	1	0
208	3	56	P	P	f	563.33	1	7	56	2	24	c	j	4863.72	1	1000	100	0	0
208	3	57	P	P	d	700.5	1	8	24	4	56	i	n	2302.48	1	1000	1000	0	0
208	3	58	N	N	f	721.61	0	7	24	2	56	i	j	1804.97	1	100	1000	1	0
208	3	59	P	P	d	639.66	1	7	56	4	24	c	j	3854.13	1	1000	1000	1	0
208	3	60	N	N	f	743.44	0	2	56	7	24	i	n	3082.44	1	100	100	1	0
208	3	61	P	P	d	627.36	1	9	24	4	56	i	n	6221.13	1	1000	1000	1	0
208	3	62	P	P	d	707.56	1	3	24	8	56	c	n	941.95	1	100	1000	0	0
208	3	63	P	P	d	487.06	1	7	24	2	56	i	n	1321.94	1	100	100	0	0
208	3	64	N	N	f	2856.5	0	4	56	8	24	i	n	837.7	1	1000	100	1	0
208	3	65	N	N	f	718.74	0	3	24	7	56	c	n	1026.57	1	1000	100	0	0
208	4	1	P	P	d	843.7	1	7	24	3	56	i	n	3926.05	1	100	1000	-1	0
208	4	2	P	P	d	710.07	1	8	56	4	24	c	j	1113.56	1	100	100	0	0
208	4	3	P	P	d	818.32	1	2	56	9	24	i	j	610.46	1	100	100	0	0
208	4	4	N	N	f	580.28	0	9	24	3	56	i	j	688.28	1	100	1000	1	0
208	4	5	P	P	d	945.73	1	8	56	2	24	c	j	1689.75	1	100	100	1	0
208	4	6	N	N	f	607.49	0	3	24	9	56	c	n	806.76	1	1000	100	1	0
208	4	7	P	P	d	575.3	1	7	24	4	56	i	n	2765.76	1	1000	1000	1	0
208	4	8	N	N	f	571.06	0	8	56	3	24	c	j	3324.2	1	100	1000	1	0
208	4	9	P	P	d	562.59	1	4	56	9	24	i	j	474.31	1	100	100	1	0
208	4	10	P	P	d	520.95	1	8	56	3	24	c	j	746.87	1	100	1000	0	0
208	4	11	N	N	f	650.13	0	2	56	8	24	i	n	748.02	1	1000	1000	1	0
208	4	12	N	N	f	650.16	0	7	56	3	24	c	j	1142.14	1	1000	1000	0	0
208	4	13	P	P	d	578.24	1	7	24	4	56	i	n	473.24	1	100	100	1	0
208	4	14	N	N	f	597.91	0	8	56	2	24	c	j	1342.29	1	1000	1000	1	0
208	4	15	P	P	d	598.98	1	9	24	3	56	i	n	1546.95	1	1000	100	1	0
208	4	16	P	P	d	625.6	1	7	56	2	24	c	j	1416.31	1	1000	1000	0	0
208	4	17	P	P	d	493.93	1	4	56	7	24	i	j	865.83	1	1000	1000	0	0
208	4	18	P	P	d	472.43	1	8	24	2	56	i	n	647.28	1	100	1000	0	0
208	4	19	P	P	d	582.55	1	3	56	8	24	i	j	781.36	1	100	1000	0	0
208	4	20	P	P	d	427.23	1	8	24	4	56	i	n	787.46	1	100	100	0	0
208	4	21	N	N	f	415.56	0	7	56	3	24	c	j	938.57	1	1000	100	1	0
208	4	22	P	P	d	676.27	1	4	56	8	24	i	j	1134.06	1	100	1000	1	0
208	4	23	N	N	f	597.53	0	9	56	2	24	c	j	600.98	1	100	100	1	0
208	4	24	N	N	f	652.67	0	7	24	3	56	i	j	2872.34	1	1000	1000	0	0
208	4	25	P	P	d	627.38	1	4	24	9	56	c	n	800.1	1	1000	100	1	0
208	4	26	P	P	d	5332.53	1	8	24	2	56	i	n	1609.15	1	1000	100	0	0
208	4	27	N	N	f	611.49	0	3	56	7	24	i	j	901.65	0	100	100	1	0
208	4	28	N	N	f	924.29	0	4	24	7	56	c	n	919.85	1	100	100	0	1
208	4	29	P	P	d	830.61	1	9	56	3	24	c	j	1285.44	1	100	1000	1	0
208	4	30	N	N	f	716.49	0	4	24	9	56	c	n	1366.69	1	1000	1000	1	0
208	4	31	N	N	f	629.93	0	8	56	2	24	c	j	565.06	1	100	1000	0	0
208	4	32	N	N	f	685.59	0	3	24	9	56	c	n	1149.84	1	100	1000	0	0
208	4	33	P	P	d	663.44	1	8	24	4	56	i	n	1431.71	1	100	1000	1	0
208	4	34	N	N	f	1179.41	0	7	24	2	56	i	j	2274.57	1	1000	100	1	0
208	4	35	P	P	d	642.75	1	4	24	8	56	c	n	774.1	1	100	1000	1	0
208	4	36	N	N	f	565.72	0	2	24	7	56	c	n	567.02	1	100	1000	1	0
208	4	37	N	N	f	619.0	0	8	56	3	24	c	j	1488.56	1	1000	100	0	0
208	4	38	N	N	f	382.87	0	2	56	8	24	i	n	1197.92	1	1000	100	0	0
208	4	39	N	N	f	581.81	0	3	56	8	24	i	n	960.72	1	1000	1000	0	0
208	4	40	N	N	f	545.73	0	7	24	2	56	i	j	677.56	1	100	100	0	0
208	4	41	N	N	f	747.71	0	3	24	8	56	c	n	813.61	1	1000	1000	0	0
208	4	42	P	P	f	536.89	1	4	56	8	24	i	j	2108.02	1	1000	1000	1	0
208	4	43	P	P	d	630.61	1	3	24	9	56	c	n	1262.78	1	1000	1000	0	0
208	4	44	N	N	f	525.01	0	4	56	9	24	i	n	2675.45	1	1000	100	1	0
208	4	45	N	N	f	609.77	0	2	56	8	24	i	n	899.81	1	100	100	0	0
208	4	46	P	P	d	775.79	1	3	56	8	24	i	j	527.52	1	1000	100	1	0
208	4	47	N	N	f	568.55	0	4	56	8	24	i	n	1701.91	1	100	1000	1	0
208	4	48	P	P	d	979.25	1	3	24	7	56	c	n	1744.68	1	1000	1000	1	0
208	4	49	P	P	d	545.48	1	2	24	7	56	c	n	452.54	1	100	100	0	0
208	4	50	P	P	d	1133.68	1	9	56	3	24	c	j	1458.02	1	1000	100	0	0
208	4	51	P	P	d	688.11	1	2	24	9	56	c	n	578.78	1	100	1000	0	0
208	4	52	P	P	d	2032.01	1	4	24	7	56	c	n	1016.77	1	1000	100	0	0
208	4	53	P	P	d	662.87	1	8	24	3	56	i	n	474.72	1	1000	1000	0	0
208	4	54	N	N	f	644.48	0	2	24	9	56	c	n	991.45	1	100	100	1	0
208	4	55	P	P	d	678.02	1	4	24	9	56	c	n	1509.16	1	100	100	1	0
208	4	56	N	N	f	374.29	0	9	24	3	56	i	j	2212.85	1	1000	1000	1	0
208	4	57	P	P	d	545.75	1	7	56	4	24	c	j	4524.17	1	1000	1000	1	0
208	4	58	P	P	d	571.21	1	3	56	8	24	i	j	1175.95	1	1000	100	0	0
208	4	59	N	N	f	577.91	0	7	24	2	56	i	j	912.71	1	100	100	1	0
208	4	60	N	N	f	614.92	0	7	24	4	56	i	j	781.25	1	1000	100	0	0
208	4	61	N	N	f	605.68	0	7	56	2	24	c	j	704.64	1	100	100	0	0
208	4	62	N	N	f	1294.47	0	9	24	3	56	i	j	718.73	1	100	1000	0	0
208	4	63	N	N	f	503.73	0	4	56	8	24	i	n	836.41	1	100	1000	0	0
208	4	64	N	N	f	684.42	0	2	24	7	56	c	n	2550.45	1	1000	100	0	0
208	4	65	P	P	d	1235.37	1	8	56	4	24	c	j	633.18	1	1000	100	1	0
208	5	1	N	N	f	1296.59	0	8	56	4	24	c	j	5126.5	1	1000	100	-1	0
208	5	2	N	N	f	1058.61	0	3	24	8	56	c	n	1459.85	1	100	1000	0	0
208	5	3	N	N	f	555.15	0	7	56	2	24	c	j	2605.53	1	100	100	0	0
208	5	4	N	N	f	605.27	0	7	24	4	56	i	j	1131.41	1	1000	100	0	0
208	5	5	P	P	d	784.87	1	3	24	7	56	c	n	586.73	1	1000	1000	1	0
208	5	6	P	P	d	684.7	1	7	24	4	56	i	n	688.4	1	1000	100	0	0
208	5	7	P	P	d	698.21	1	3	24	7	56	c	n	635.16	1	100	100	0	0
208	5	8	N	N	f	649.5	0	4	24	7	56	c	n	737.77	1	100	100	1	0
208	5	9	P	P	d	741.73	1	3	56	7	24	i	j	661.99	1	100	100	1	0
208	5	10	P	P	d	996.84	1	7	24	4	56	i	n	542.01	1	1000	1000	0	0
208	5	11	P	P	d	521.42	1	9	56	2	24	c	j	590.0	1	1000	1000	0	0
208	5	12	N	N	f	867.79	0	9	56	3	24	c	j	1097.0	1	1000	1000	1	0
208	5	13	P	P	d	605.33	1	4	24	9	56	c	n	972.97	1	100	1000	1	0
208	5	14	N	N	f	541.1	0	7	24	3	56	i	j	1189.86	1	1000	100	1	0
208	5	15	N	N	f	586.6	0	8	24	4	56	i	j	611.63	1	100	100	0	0
208	5	16	P	P	d	626.51	1	8	24	3	56	i	n	640.05	1	100	1000	1	0
208	5	17	N	N	f	406.34	0	4	56	8	24	i	n	1053.65	1	1000	100	1	0
208	5	18	N	N	f	615.98	0	8	56	2	24	c	j	805.02	1	1000	100	0	0
208	5	19	P	P	d	652.94	1	4	56	9	24	i	j	3029.76	1	100	1000	1	0
208	5	20	N	N	f	703.42	0	8	24	3	56	i	j	646.45	1	100	100	1	0
208	5	21	P	P	d	649.89	1	2	24	9	56	c	n	647.75	1	100	100	1	0
208	5	22	N	N	f	752.11	0	8	24	4	56	i	j	755.86	1	100	1000	1	0
208	5	23	N	N	f	573.41	0	2	24	7	56	c	n	3820.96	1	1000	1000	0	0
208	5	24	P	P	d	682.64	1	9	56	3	24	c	j	780.91	1	1000	1000	1	0
208	5	25	P	P	d	412.89	1	8	56	2	24	c	j	814.12	1	1000	100	0	0
208	5	26	P	P	d	582.8	1	3	56	7	24	i	j	1007.41	1	100	100	0	0
208	5	27	N	N	f	733.36	0	8	24	2	56	i	j	2086.64	1	1000	1000	1	0
208	5	28	N	N	f	468.24	0	3	56	8	24	i	n	1555.13	1	1000	1000	0	0
208	5	29	N	N	f	606.55	0	9	56	4	24	c	j	2605.47	1	1000	1000	0	0
208	5	30	N	N	f	437.11	0	3	56	8	24	i	n	1017.87	1	100	100	0	0
208	5	31	P	P	d	1159.22	1	7	24	4	56	i	n	1111.52	1	1000	1000	1	0
208	5	32	N	N	f	697.88	0	2	24	9	56	c	n	634.33	1	1000	100	1	0
208	5	33	P	P	d	406.44	1	4	24	7	56	c	n	828.92	1	1000	100	1	0
208	5	34	P	P	d	716.72	1	9	56	3	24	c	j	567.64	1	100	1000	0	0
208	5	35	N	N	f	620.71	0	7	56	2	24	c	j	3154.59	1	100	1000	1	0
208	5	36	N	N	f	458.38	0	8	24	4	56	i	j	695.31	1	100	1000	0	0
208	5	37	P	P	d	738.09	1	3	56	7	24	i	j	4077.62	1	1000	1000	1	0
208	5	38	P	P	d	530.48	1	2	56	9	24	i	j	767.5	1	1000	1000	0	0
208	5	39	N	N	f	596.77	0	3	24	7	56	c	n	1048.79	1	1000	1000	1	0
208	5	40	P	P	d	1406.17	1	8	24	4	56	i	n	534.52	1	100	100	1	0
208	5	41	P	P	d	717.83	1	9	24	3	56	i	n	3111.38	1	100	1000	0	0
208	5	42	P	P	d	521.54	1	7	56	4	24	c	j	917.71	1	100	100	0	0
208	5	43	P	P	d	1542.26	1	2	56	9	24	i	j	796.06	1	1000	100	0	0
208	5	44	N	N	f	594.12	0	9	56	4	24	c	j	562.26	1	100	100	1	0
208	5	45	N	N	f	615.56	0	3	24	9	56	c	n	545.45	1	100	100	0	0
208	5	46	P	P	d	636.35	1	4	56	9	24	i	j	1062.49	1	1000	100	1	0
208	5	47	P	P	d	535.48	1	9	24	3	56	i	n	498.77	1	100	100	0	0
208	5	48	N	N	f	607.31	0	4	56	7	24	i	n	637.82	1	100	1000	1	0
208	5	49	P	P	d	1157.55	1	8	24	3	56	i	n	751.0	1	1000	100	1	0
208	5	50	N	N	f	890.19	0	4	24	8	56	c	n	784.04	1	100	1000	1	0
208	5	51	P	P	d	541.37	1	9	56	3	24	c	j	739.86	1	100	100	1	0
208	5	52	P	P	d	586.14	1	2	24	7	56	c	n	689.59	1	1000	1000	0	0
208	5	53	N	N	f	608.07	0	9	56	3	24	c	j	673.28	1	1000	100	1	0
208	5	54	N	N	f	586.41	0	2	56	9	24	i	n	588.9	1	100	1000	0	0
208	5	55	P	P	d	642.41	1	8	56	4	24	c	j	1359.53	1	100	1000	1	0
208	5	56	P	P	d	486.47	1	3	24	9	56	c	n	579.12	1	1000	100	0	0
208	5	57	N	N	f	1796.12	0	4	56	9	24	i	n	607.07	1	1000	1000	1	0
208	5	58	P	P	d	2746.98	1	8	56	3	24	c	j	811.9	1	1000	100	1	0
208	5	59	P	P	d	445.06	1	2	24	7	56	c	n	462.53	1	100	1000	0	0
208	5	60	P	P	d	503.64	1	4	56	9	24	i	j	791.75	1	100	1000	0	0
208	5	61	N	N	f	1060.9	0	2	56	8	24	i	n	900.78	1	100	100	1	0
208	5	62	N	N	f	551.37	0	4	56	9	24	i	n	475.31	1	1000	100	0	0
208	5	63	N	N	f	554.84	0	2	24	9	56	c	n	624.14	1	1000	100	0	0
208	5	64	N	N	f	632.67	0	7	24	3	56	i	j	634.89	1	1000	1000	0	0
208	5	65	N	N	f	627.43	0	7	56	2	24	c	j	516.54	1	100	1000	0	0
208	6	1	P	P	f	606.82	1	9	56	2	24	c	j	2223.06	1	1000	1000	-1	0
208	6	2	P	P	d	562.79	1	3	24	9	56	c	n	1408.04	1	100	1000	0	0
208	6	3	N	N	f	541.76	0	9	56	2	24	c	j	3991.64	1	1000	1000	1	0
208	6	4	P	P	d	844.64	1	9	24	3	56	i	n	1416.98	1	100	1000	1	0
208	6	5	N	N	f	765.79	0	8	24	2	56	i	j	1230.55	1	100	1000	1	0
208	6	6	N	N	f	628.1	0	9	24	3	56	i	j	630.37	1	100	1000	0	0
208	6	7	P	P	d	537.24	1	9	24	2	56	i	n	1162.71	1	1000	1000	1	0
208	6	8	P	P	d	671.86	1	3	24	7	56	c	n	557.36	1	100	100	0	0
208	6	9	P	P	d	610.76	1	4	56	7	24	i	j	763.6	1	100	1000	0	0
208	6	10	N	N	f	729.45	0	7	24	2	56	i	j	610.84	1	100	100	1	0
208	6	11	P	P	d	770.46	1	4	24	8	56	c	n	2152.92	1	100	1000	1	0
208	6	12	P	P	d	716.16	1	8	56	3	24	c	j	569.13	1	100	100	0	0
208	6	13	N	N	f	683.92	0	7	24	2	56	i	j	3155.8	1	1000	1000	1	0
208	6	14	N	N	f	718.06	0	7	56	3	24	c	j	453.01	1	100	100	0	0
208	6	15	P	P	d	627.6	1	8	56	2	24	c	j	866.36	1	1000	1000	1	0
208	6	16	P	P	d	754.64	1	8	24	3	56	i	n	837.43	1	100	100	0	0
208	6	17	N	N	f	640.52	0	7	24	2	56	i	j	1143.88	1	1000	100	1	0
208	6	18	N	N	f	544.49	0	8	56	4	24	c	j	1406.83	1	1000	1000	0	0
208	6	19	P	P	d	722.34	1	8	24	2	56	i	n	1468.25	1	100	100	1	0
208	6	20	P	P	d	2127.08	1	4	56	8	24	i	j	538.6	1	1000	1000	0	0
208	6	21	P	P	d	348.81	1	8	24	2	56	i	n	791.66	1	1000	1000	0	0
208	6	22	N	N	f	757.92	0	4	24	8	56	c	n	4305.34	1	100	1000	1	0
208	6	23	N	N	f	615.91	0	2	24	8	56	c	n	478.9	1	100	100	0	0
208	6	24	P	P	d	523.9	1	4	24	9	56	c	n	558.66	1	1000	1000	1	0
208	6	25	P	P	d	813.92	1	9	56	3	24	c	j	665.67	1	1000	1000	0	0
208	6	26	P	P	d	663.81	1	8	56	4	24	c	j	521.0	1	100	1000	0	0
208	6	27	P	P	d	470.75	1	7	24	2	56	i	n	726.11	1	1000	100	0	0
208	6	28	N	N	f	734.84	0	3	24	7	56	c	n	565.59	1	1000	100	1	0
208	6	29	P	P	d	944.02	1	8	24	2	56	i	n	944.99	1	1000	100	1	0
208	6	30	P	P	d	702.73	1	3	24	7	56	c	n	645.42	1	1000	100	0	0
208	6	31	N	N	f	580.08	0	4	56	9	24	i	n	667.8	1	1000	100	1	0
208	6	32	N	N	f	789.53	0	8	56	2	24	c	j	984.51	1	100	1000	0	0
208	6	33	N	N	f	581.9	0	9	24	4	56	i	j	758.86	1	100	100	0	0
208	6	34	N	N	f	565.58	0	3	56	9	24	i	n	905.53	1	1000	100	0	0
208	6	35	P	P	d	619.89	1	9	56	2	24	c	j	790.62	1	100	1000	1	0
208	6	36	P	P	d	655.02	1	9	24	4	56	i	n	905.48	1	100	1000	0	0
208	6	37	P	P	d	416.83	1	3	56	9	24	i	j	772.65	1	100	100	0	0
208	6	38	N	N	f	664.69	0	7	56	4	24	c	j	1251.95	1	100	1000	1	0
208	6	39	P	P	d	671.41	1	3	24	7	56	c	n	1164.48	1	1000	100	1	0
208	6	40	N	N	f	695.48	0	2	24	8	56	c	n	1113.94	1	1000	1000	1	0
208	6	41	P	P	d	560.41	1	3	56	9	24	i	j	2655.12	1	100	1000	1	0
208	6	42	N	N	f	842.05	0	2	56	9	24	i	n	1392.1	1	100	1000	1	0
208	6	43	N	N	f	745.36	0	3	24	7	56	c	n	2881.15	1	1000	1000	0	0
208	6	44	N	N	f	682.16	0	4	56	7	24	i	n	1468.01	1	100	100	0	0
208	6	45	N	N	f	587.15	0	2	56	8	24	i	n	937.22	1	100	1000	0	0
208	6	46	P	P	d	1337.14	1	3	56	8	24	i	j	599.88	1	1000	1000	1	0
208	6	47	N	N	f	686.62	0	7	56	4	24	c	j	960.4	1	100	100	1	0
208	6	48	P	P	d	2131.43	1	9	56	2	24	c	j	1251.48	1	1000	100	1	0
208	6	49	N	N	f	1036.7	0	3	24	8	56	c	n	3232.94	1	100	100	1	0
208	6	50	N	N	f	853.43	0	4	24	8	56	c	n	509.37	1	100	1000	0	0
208	6	51	N	N	f	499.66	0	7	24	3	56	i	n	737.2	0	1000	100	0	0
208	6	52	N	N	f	471.29	0	2	24	8	56	c	n	623.86	1	1000	100	0	1
208	6	53	P	P	d	779.42	1	9	56	3	24	c	j	767.42	1	100	100	1	0
208	6	54	P	P	d	473.52	1	2	56	9	24	i	j	1424.59	1	1000	100	0	0
208	6	55	P	P	d	711.42	1	9	56	4	24	c	j	833.56	1	1000	100	0	0
208	6	56	N	N	f	934.4	0	2	56	8	24	i	n	975.36	1	100	100	1	0
208	6	57	P	P	d	589.31	1	4	24	8	56	c	n	512.74	1	100	100	1	0
208	6	58	P	P	d	536.79	1	3	24	8	56	c	n	723.61	1	1000	1000	0	0
208	6	59	N	N	f	575.65	0	2	56	7	24	i	n	1055.31	1	1000	1000	1	0
208	6	60	P	P	d	731.5	1	3	56	7	24	i	j	623.09	1	100	100	1	0
208	6	61	N	N	f	642.82	0	7	56	2	24	c	j	843.0	1	1000	100	1	0
208	6	62	N	N	f	498.33	0	7	24	3	56	i	j	1590.76	1	1000	1000	0	0
208	6	63	N	N	f	664.26	0	8	56	2	24	c	j	3965.59	1	1000	100	0	0
208	6	64	N	N	f	478.88	0	3	56	7	24	i	n	1339.28	1	1000	1000	0	0
208	6	65	P	P	d	558.11	1	4	56	9	24	i	j	583.02	1	1000	100	1	0
