subj	block	trial	task_cue	task	choice_resp	choiceRT	choice_acc	topnum	topsize	botnum	botsize	cong	task_resp	taskRT	task_acc	RSI	CSI	altRep	E1
212	1	1	N	N	d	1286.61	0	8	56	2	24	c	j	4908.01	1	100	100	-1	0
212	1	2	P	P	f	1537.24	1	8	56	4	24	c	j	2571.83	1	100	100	1	0
212	1	3	P	P	f	1687.31	1	2	56	9	24	i	j	4491.06	1	100	1000	0	0
212	1	4	P	P	f	1486.68	1	4	56	9	24	i	j	1737.99	1	1000	100	0	0
212	1	5	N	N	d	3222.65	0	9	24	3	56	i	j	1837.84	1	1000	1000	1	0
212	1	6	P	P	f	3322.63	1	9	24	4	56	i	n	2304.78	1	1000	100	1	0
212	1	7	N	N	d	1821.08	0	2	24	8	56	c	n	3540.35	1	1000	1000	1	0
212	1	8	P	P	f	3506.38	1	7	24	3	56	i	n	3755.4	1	100	100	1	0
212	1	9	N	N	d	1688.02	0	2	56	9	24	i	n	2371.95	1	100	100	1	0
212	1	10	N	N	d	1001.4	0	3	24	7	56	c	n	1421.47	1	1000	1000	0	0
212	1	11	P	P	f	1487.61	1	4	56	7	24	i	j	1637.98	1	1000	100	1	0
212	1	12	P	P	f	1370.56	1	2	24	7	56	c	n	1404.2	1	1000	100	0	0
212	1	13	P	P	f	1919.18	1	8	56	3	24	c	j	4791.52	1	100	1000	0	0
212	1	14	N	N	d	2772.04	0	4	56	9	24	i	n	1804.66	1	1000	1000	1	0
212	1	15	P	P	f	2121.14	1	8	56	3	24	c	j	3223.26	1	100	1000	1	0
212	1	16	P	P	f	1320.07	1	7	56	2	24	c	j	1520.52	1	1000	1000	0	0
212	1	17	P	P	f	2554.96	1	9	24	4	56	i	n	1454.29	1	100	100	0	0
212	1	18	N	N	d	1470.58	0	8	24	2	56	i	j	2002.67	1	1000	100	1	0
212	1	19	N	N	d	1403.9	0	3	24	9	56	c	n	1320.41	1	1000	100	0	0
212	1	20	P	P	f	2121.49	1	4	56	9	24	i	j	1654.63	1	100	100	1	0
212	1	21	P	P	f	2553.2	1	3	24	7	56	c	n	1570.44	1	100	1000	0	0
212	1	22	N	N	d	2222.17	0	8	24	4	56	i	j	2171.32	1	100	100	1	0
212	1	23	N	N	d	1170.09	0	8	56	2	24	c	j	1370.05	1	1000	100	0	0
212	1	24	P	P	f	1069.47	1	4	24	7	56	c	n	1771.44	1	1000	1000	1	0
212	1	25	P	P	d	1570.74	1	3	56	8	24	i	j	4524.67	1	100	100	0	0
212	1	26	N	N	d	903.24	0	8	56	4	24	c	j	3673.36	1	1000	1000	1	0
212	1	27	N	N	d	1237.9	0	7	56	2	24	c	j	1103.95	1	100	100	0	0
212	1	28	N	N	d	936.64	0	7	24	4	56	i	j	2105.68	1	100	100	0	0
212	1	29	P	P	f	870.16	1	2	24	8	56	c	n	2138.34	1	1000	100	1	0
212	1	30	P	P	f	1053.42	1	8	24	3	56	i	n	1287.4	1	1000	1000	0	0
212	1	31	N	N	d	2489.28	0	4	24	8	56	c	n	1235.35	1	100	100	1	0
212	1	32	N	N	d	1921.37	0	7	56	2	24	c	j	1218.11	1	100	1000	0	0
212	1	33	N	N	d	1437.48	0	4	56	9	24	i	n	2288.73	1	1000	1000	0	0
212	1	34	P	P	f	1037.09	1	8	56	2	24	c	j	1103.34	1	1000	1000	1	0
212	1	35	N	N	d	1620.35	0	3	24	9	56	c	n	1771.15	1	100	1000	1	0
212	1	36	N	N	d	1603.88	0	7	56	4	24	c	j	1903.88	1	1000	1000	0	0
212	1	37	N	N	d	1086.91	0	3	24	8	56	c	n	1019.76	1	100	1000	0	0
212	1	38	P	P	f	1788.16	1	4	24	8	56	c	n	2037.99	1	100	1000	1	0
212	1	39	P	P	f	1387.32	1	2	24	9	56	c	n	1320.49	1	100	100	0	0
212	1	40	P	P	f	1020.34	1	4	56	8	24	i	j	1938.07	1	1000	1000	0	0
212	1	41	P	P	f	1136.9	1	7	56	2	24	c	j	1153.4	1	1000	100	0	0
212	1	42	P	P	f	1170.51	1	3	24	7	56	c	n	2638.1	1	1000	1000	0	0
212	1	43	N	N	d	1103.51	0	9	56	4	24	c	j	1670.52	1	1000	100	1	0
212	1	44	P	P	f	1387.5	1	3	24	7	56	c	n	1353.92	1	100	100	1	0
212	1	45	N	N	d	1537.3	0	2	56	7	24	i	n	2204.73	1	100	1000	1	0
212	1	46	P	P	f	1053.61	1	3	56	8	24	i	j	1570.78	1	1000	1000	1	0
212	1	47	P	P	f	1437.29	1	7	56	4	24	c	j	1034.3	1	100	100	0	0
212	1	48	N	N	d	969.85	0	8	56	2	24	c	j	1571.4	1	100	1000	1	0
212	1	49	N	N	d	1220.5	0	8	24	3	56	i	j	2021.11	1	1000	100	0	0
212	1	50	N	N	d	1437.23	0	4	56	9	24	i	n	1704.17	1	100	100	0	0
212	1	51	N	N	d	1037.22	0	2	24	7	56	c	n	3038.72	1	100	100	0	0
212	1	52	N	N	d	836.8	0	8	24	3	56	i	j	1588.23	1	100	1000	0	0
212	1	53	N	N	d	1153.56	0	7	24	2	56	i	j	1386.96	1	1000	1000	0	0
212	1	54	N	N	d	1287.03	0	3	56	7	24	i	n	1485.64	1	100	1000	0	0
212	1	55	P	P	f	1036.79	1	9	56	2	24	c	j	2137.94	1	1000	100	1	0
212	1	56	N	N	d	919.77	0	4	24	8	56	c	n	1418.81	1	1000	100	1	0
212	1	57	P	P	f	1620.98	1	3	56	8	24	i	j	1086.83	1	100	1000	1	0
212	1	58	N	N	d	1420.1	0	9	56	2	24	c	j	1004.11	1	100	100	1	0
212	1	59	N	N	d	1053.43	0	3	56	9	24	i	n	1653.82	1	1000	100	0	0
212	1	60	P	P	f	6924.82	1	9	24	2	56	i	n	3273.24	1	1000	1000	1	0
212	1	61	P	P	f	1837.64	1	9	24	4	56	i	n	2155.31	1	1000	100	0	0
212	1	62	N	N	d	2338.34	0	7	24	2	56	i	j	2038.13	1	100	1000	1	0
212	1	63	P	P	f	1170.27	1	9	24	3	56	i	n	970.09	1	100	1000	1	0
212	1	64	P	P	f	1821.38	1	8	24	4	56	i	n	1186.38	1	100	1000	0	0
212	1	65	N	N	d	1237.59	0	2	56	7	24	i	n	1654.15	1	1000	100	1	0
212	2	1	N	N	d	1270.4	0	2	56	8	24	i	n	1303.87	1	100	1000	-1	0
212	2	2	P	P	f	1454.03	1	8	56	4	24	c	j	5091.54	1	100	1000	1	0
212	2	3	P	P	f	853.11	1	7	56	3	24	c	j	1887.68	1	1000	1000	0	0
212	2	4	N	N	d	720.22	0	8	24	2	56	i	j	1387.56	1	1000	1000	1	0
212	2	5	N	N	d	1101.61	0	4	24	9	56	c	n	1004.16	1	100	100	0	0
212	2	6	P	P	f	903.25	1	2	56	8	24	i	j	2805.68	1	100	100	1	0
212	2	7	N	N	d	1487.6	0	8	56	4	24	c	j	2669.73	1	1000	1000	1	0
212	2	8	N	N	d	853.62	0	3	24	8	56	c	n	870.67	1	100	1000	0	0
212	2	9	P	P	f	769.9	1	8	24	2	56	i	n	1137.11	1	1000	1000	1	0
212	2	10	P	P	f	1169.6	1	7	56	3	24	c	j	1504.33	1	100	1000	0	0
212	2	11	N	N	d	1154.4	0	9	56	4	24	c	j	853.46	1	100	1000	1	0
212	2	12	N	N	d	1020.19	0	3	56	7	24	i	n	1437.67	1	100	100	0	0
212	2	13	P	P	f	1120.28	1	2	56	8	24	i	j	1034.64	1	1000	1000	1	0
212	2	14	N	N	d	1170.1	0	7	56	4	24	c	j	1638.02	1	1000	100	1	0
212	2	15	P	P	f	703.13	1	2	24	7	56	c	n	1170.06	1	1000	100	1	0
212	2	16	P	P	f	986.94	1	3	24	7	56	c	n	670.15	1	1000	1000	0	0
212	2	17	P	P	f	1704.13	1	4	24	7	56	c	n	953.84	1	100	100	0	0
212	2	18	P	P	f	1186.69	1	2	24	7	56	c	n	836.39	1	100	1000	0	0
212	2	19	N	N	d	2121.32	0	9	24	3	56	i	j	1637.72	1	100	1000	1	0
212	2	20	P	P	f	786.55	1	9	56	4	24	c	j	936.95	1	1000	100	1	0
212	2	21	N	N	d	803.49	0	3	24	7	56	c	n	1254.41	1	1000	1000	1	0
212	2	22	N	N	d	1053.43	0	7	24	2	56	i	j	1301.82	1	100	100	0	0
212	2	23	N	N	d	886.61	0	9	56	4	24	c	j	803.17	1	100	1000	0	0
212	2	24	P	P	f	1019.88	1	3	56	7	24	i	j	1837.31	1	100	1000	1	0
212	2	25	P	P	f	969.68	1	4	56	9	24	i	j	836.54	1	1000	100	0	0
212	2	26	N	N	d	703.23	0	2	56	9	24	i	n	1187.39	1	1000	100	1	0
212	2	27	N	N	d	936.76	0	3	56	9	24	i	n	901.66	1	100	1000	0	0
212	2	28	P	P	f	1186.6	1	8	24	2	56	i	n	920.63	1	100	100	1	0
212	2	29	N	N	d	1153.68	0	8	56	4	24	c	j	935.17	1	100	100	1	0
212	2	30	N	N	d	1036.99	0	9	56	3	24	c	j	820.05	1	100	100	0	0
212	2	31	P	P	f	820.27	1	4	24	8	56	c	n	853.67	1	100	1000	1	0
212	2	32	P	P	f	970.0	1	8	56	2	24	c	j	853.62	1	100	100	0	0
212	2	33	N	N	d	870.34	0	4	24	9	56	c	n	768.38	1	1000	100	1	0
212	2	34	P	P	f	836.26	1	3	24	7	56	c	n	853.71	1	1000	1000	1	0
212	2	35	N	N	d	619.77	0	8	24	2	56	i	j	1101.35	1	1000	100	1	0
212	2	36	P	P	f	1003.58	1	8	24	3	56	i	n	787.24	1	100	1000	1	0
212	2	37	P	P	f	1320.47	1	8	24	2	56	i	n	770.02	1	1000	100	0	0
212	2	38	P	P	f	1904.26	1	7	24	4	56	i	n	853.08	1	100	100	0	0
212	2	39	N	N	d	1537.87	0	2	24	8	56	c	n	853.23	1	100	1000	1	0
212	2	40	P	P	f	1087.21	1	4	56	8	24	i	j	1053.91	1	1000	100	1	0
212	2	41	P	P	f	2271.66	1	2	56	7	24	i	j	836.75	1	100	100	0	0
212	2	42	P	P	f	769.54	1	7	24	3	56	i	n	736.37	1	100	1000	0	0
212	2	43	P	P	f	1170.18	1	4	56	8	24	i	j	786.01	1	100	1000	0	0
212	2	44	P	P	f	236.1	1	9	24	3	56	i	n	918.43	1	1000	1000	0	0
212	2	45	N	N	d	2486.43	0	2	56	9	24	i	n	1171.17	1	1000	1000	1	0
212	2	46	N	N	d	920.25	0	9	56	3	24	c	j	986.88	1	1000	100	0	0
212	2	47	N	N	d	769.26	0	2	24	7	56	c	n	1136.53	1	1000	1000	0	0
212	2	48	N	N	d	1153.75	0	7	56	3	24	c	j	817.98	1	1000	1000	0	0
212	2	49	N	N	d	734.31	0	9	24	4	56	i	j	1654.36	1	1000	1000	0	0
212	2	50	P	P	f	820.01	1	8	56	3	24	c	j	1754.43	1	1000	1000	1	0
212	2	51	N	N	d	1019.69	0	4	24	7	56	c	n	2471.22	1	100	100	1	0
212	2	52	N	N	d	686.5	0	3	56	7	24	i	n	1353.8	1	1000	100	0	0
212	2	53	P	P	f	869.69	1	9	24	4	56	i	n	2354.8	1	1000	100	1	0
212	2	54	N	N	d	887.53	0	2	56	7	24	i	n	1437.3	1	100	100	1	0
212	2	55	P	P	f	970.12	1	4	24	8	56	c	n	903.92	1	100	100	1	0
212	2	56	P	P	f	1203.05	1	3	56	9	24	i	j	669.83	1	1000	1000	0	0
212	2	57	P	P	f	686.36	1	7	56	2	24	c	j	918.06	1	1000	100	0	0
212	2	58	N	N	d	1955.21	0	4	56	7	24	i	n	1604.5	1	100	1000	1	0
212	2	59	N	N	d	1053.35	0	8	24	2	56	i	j	1019.82	1	1000	100	0	0
212	2	60	N	N	d	2221.42	0	3	56	9	24	i	n	1251.43	1	1000	1000	0	0
212	2	61	N	N	d	819.99	0	4	24	9	56	c	n	1203.74	1	1000	100	0	0
212	2	62	N	N	d	969.97	0	8	24	3	56	i	j	1168.23	1	100	1000	0	0
212	2	63	P	P	f	1102.36	1	8	56	2	24	c	j	819.21	1	100	100	1	0
212	2	64	P	P	f	836.12	1	3	24	8	56	c	n	819.47	1	1000	100	0	0
212	2	65	N	N	d	2188.27	0	7	24	2	56	i	j	803.16	1	100	100	1	0
212	3	1	P	P	f	1804.59	1	3	56	8	24	i	j	3423.02	1	1000	100	-1	0
212	3	2	N	N	d	803.28	0	2	56	9	24	i	n	953.2	1	100	100	1	0
212	3	3	P	P	f	803.35	1	4	56	7	24	i	j	870.42	1	100	1000	1	0
212	3	4	P	P	d	1151.42	1	8	24	3	56	i	n	4124.16	1	100	100	0	0
212	3	5	N	N	d	1036.72	0	9	24	4	56	i	j	920.46	1	100	100	1	0
212	3	6	N	N	d	1654.23	0	8	24	3	56	i	j	1086.89	1	1000	100	0	0
212	3	7	P	P	f	1720.93	1	4	24	8	56	c	n	1020.67	1	100	100	1	0
212	3	8	N	N	d	1187.28	0	8	24	3	56	i	j	903.28	1	1000	100	1	0
212	3	9	N	N	d	920.53	0	9	24	2	56	i	j	852.71	1	100	1000	0	0
212	3	10	P	P	f	1203.68	1	4	56	8	24	i	j	1352.45	1	1000	100	1	0
212	3	11	N	N	d	1070.13	0	8	56	2	24	c	j	1388.49	1	100	1000	1	0
212	3	12	P	P	f	819.48	1	3	56	7	24	i	j	1119.89	1	100	100	1	0
212	3	13	P	P	f	318.93	1	9	24	4	56	i	n	753.57	1	1000	1000	0	0
212	3	14	P	P	f	886.71	1	3	24	7	56	c	n	851.07	1	100	100	0	0
212	3	15	P	P	f	768.36	1	2	56	8	24	i	j	1171.71	1	1000	1000	0	0
212	3	16	N	N	d	953.1	0	8	56	3	24	c	j	920.68	1	100	100	1	0
212	3	17	P	P	f	919.9	1	4	24	9	56	c	n	1120.29	1	100	1000	1	0
212	3	18	P	P	f	836.82	1	2	24	9	56	c	n	803.72	1	1000	1000	0	0
212	3	19	N	N	d	1570.35	0	8	24	4	56	i	j	1670.44	1	100	1000	1	0
212	3	20	N	N	d	753.32	0	3	24	7	56	c	n	920.25	1	100	1000	0	0
212	3	21	P	P	f	3473.27	1	4	24	8	56	c	n	735.76	1	1000	1000	1	0
212	3	22	P	P	f	2221.15	1	3	56	8	24	i	n	970.42	0	100	100	0	0
212	3	23	N	N	d	1153.41	0	2	56	7	24	i	n	1721.7	1	1000	100	1	1
212	3	24	N	N	d	753.14	0	3	56	9	24	i	n	1287.6	1	1000	100	0	0
212	3	25	N	N	d	3306.19	0	8	56	4	24	c	j	786.36	1	1000	1000	0	0
212	3	26	P	P	f	1954.14	1	7	56	2	24	c	j	2873.15	1	100	100	1	0
212	3	27	N	N	d	1970.77	0	4	56	7	24	i	n	5224.91	1	1000	1000	1	0
212	3	28	P	P	f	1170.23	1	7	24	2	56	i	n	853.42	1	100	1000	1	0
212	3	29	P	P	f	2355.01	1	8	56	3	24	c	j	1637.34	1	1000	1000	0	0
212	3	30	N	N	d	820.46	0	2	24	7	56	c	n	1037.57	1	1000	100	1	0
212	3	31	P	P	f	869.98	1	8	56	3	24	c	j	1301.59	1	1000	100	1	0
212	3	32	N	N	d	770.19	0	8	56	4	24	c	j	869.97	1	1000	1000	1	0
212	3	33	P	P	f	1504.66	1	9	24	3	56	i	n	1403.7	1	100	100	1	0
212	3	34	P	P	f	1020.27	1	9	56	4	24	c	j	770.28	1	100	1000	0	0
212	3	35	N	N	d	887.1	0	2	24	7	56	c	n	870.32	1	100	100	1	0
212	3	36	N	N	d	920.01	0	7	56	4	24	c	j	852.91	1	100	100	0	0
212	3	37	P	P	f	803.68	1	2	56	7	24	i	j	786.62	1	1000	1000	1	0
212	3	38	P	P	f	419.24	1	9	56	4	24	c	j	1136.87	1	1000	100	0	0
212	3	39	P	P	f	717.76	1	7	24	3	56	i	n	703.06	1	1000	100	0	0
212	3	40	N	N	d	1020.0	0	2	24	7	56	c	n	1068.16	1	100	1000	1	0
212	3	41	N	N	d	1437.79	0	8	24	3	56	i	j	2472.03	1	1000	1000	0	0
212	3	42	N	N	d	986.98	0	7	56	4	24	c	j	736.43	1	100	1000	0	0
212	3	43	N	N	d	1219.92	0	3	56	8	24	i	n	919.56	1	1000	1000	0	0
212	3	44	P	P	f	1454.18	1	9	24	4	56	i	n	985.17	1	1000	100	1	0
212	3	45	P	P	f	936.62	1	2	56	9	24	i	j	817.84	1	100	1000	0	0
212	3	46	P	P	f	1353.78	1	3	56	8	24	i	j	1486.83	1	1000	100	0	0
212	3	47	P	P	f	719.88	1	2	24	9	56	c	n	836.38	1	1000	100	0	0
212	3	48	N	N	d	920.11	0	4	56	8	24	i	n	1454.48	1	100	1000	1	0
212	3	49	P	P	f	703.31	1	3	24	9	56	c	n	953.44	1	1000	100	1	0
212	3	50	N	N	d	753.99	0	9	56	2	24	c	j	1037.07	1	1000	100	1	0
212	3	51	P	P	f	1771.28	1	7	56	3	24	c	j	1268.19	1	1000	1000	1	0
212	3	52	P	P	f	1036.5	1	2	24	9	56	c	n	2038.63	1	100	1000	0	0
212	3	53	P	P	f	753.06	1	8	56	3	24	c	j	737.1	1	100	100	0	0
212	3	54	N	N	d	703.3	0	2	24	7	56	c	n	954.36	1	1000	1000	1	0
212	3	55	P	P	f	1470.72	1	7	56	4	24	c	j	4007.13	1	100	1000	1	0
212	3	56	N	N	d	817.87	0	9	24	2	56	i	j	2038.04	1	1000	1000	1	0
212	3	57	N	N	d	970.08	0	3	24	7	56	c	n	936.78	1	100	100	0	0
212	3	58	N	N	d	1568.74	0	2	24	9	56	c	n	869.73	1	1000	100	0	0
212	3	59	N	N	d	3538.97	0	9	24	3	56	i	j	1470.68	1	100	100	0	0
212	3	60	N	N	d	1170.31	0	4	24	7	56	c	n	870.85	1	1000	1000	0	0
212	3	61	N	N	d	3170.48	0	2	56	7	24	i	n	1170.28	1	100	100	0	0
212	3	62	N	N	d	1019.99	0	3	56	9	24	i	n	953.31	1	100	1000	0	0
212	3	63	N	N	d	834.41	0	9	56	2	24	c	j	936.69	1	1000	100	0	0
212	3	64	P	P	f	886.89	1	9	24	4	56	i	n	1504.31	1	1000	1000	1	0
212	3	65	P	P	f	1119.56	1	7	24	2	56	i	n	784.47	1	100	1000	0	0
212	4	1	N	N	d	2054.34	0	9	24	4	56	i	j	1787.52	1	1000	1000	-1	0
212	4	2	P	P	f	886.73	1	8	24	3	56	i	n	870.01	1	100	100	1	0
212	4	3	P	P	f	736.38	1	2	24	7	56	c	n	652.81	1	100	100	0	0
212	4	4	N	N	d	753.47	0	3	56	7	24	i	n	1804.2	1	1000	100	1	0
212	4	5	N	N	d	619.78	0	2	24	7	56	c	n	736.04	1	1000	1000	0	0
212	4	6	P	P	f	1103.81	1	3	24	9	56	c	n	853.94	1	1000	100	1	0
212	4	7	P	P	f	686.66	1	2	56	9	24	i	j	1537.93	1	1000	1000	0	0
212	4	8	P	P	f	1086.27	1	3	24	8	56	c	n	753.2	1	1000	100	0	0
212	4	9	N	N	d	886.48	0	4	56	8	24	i	n	1352.21	1	1000	1000	1	0
212	4	10	N	N	d	902.89	0	3	56	9	24	i	n	902.71	1	1000	100	0	0
212	4	11	N	N	d	684.49	0	4	24	8	56	c	n	686.71	1	1000	100	0	0
212	4	12	N	N	d	1037.06	0	9	24	2	56	i	j	1370.87	1	100	1000	0	0
212	4	13	P	P	f	2188.46	1	8	24	3	56	i	n	1270.96	1	100	1000	1	0
212	4	14	P	P	f	1437.71	1	4	24	7	56	c	n	3005.76	1	1000	1000	0	0
212	4	15	N	N	d	836.5	0	8	24	3	56	i	j	1170.84	1	100	1000	1	0
212	4	16	N	N	d	736.57	0	9	56	2	24	c	j	720.04	1	100	100	0	0
212	4	17	P	P	f	719.77	1	3	56	9	24	i	j	1153.85	1	100	1000	1	0
212	4	18	N	N	d	987.49	0	7	56	2	24	c	j	920.23	1	100	1000	1	0
212	4	19	P	P	f	685.87	1	3	24	8	56	c	n	754.01	1	1000	1000	1	0
212	4	20	P	P	f	1036.84	1	4	24	8	56	c	n	667.91	1	100	1000	0	0
212	4	21	N	N	d	2555.07	0	8	56	3	24	c	j	853.06	1	100	100	1	0
212	4	22	N	N	d	786.72	0	7	24	4	56	i	j	1270.35	1	1000	1000	0	0
212	4	23	P	P	f	1136.39	1	7	56	3	24	c	j	887.07	1	1000	1000	1	0
212	4	24	P	P	f	770.25	1	4	56	8	24	i	j	1771.13	1	1000	100	0	0
212	4	25	P	P	f	804.27	1	9	56	3	24	c	j	837.22	1	1000	1000	0	0
212	4	26	N	N	d	836.79	0	7	24	2	56	i	j	2671.54	1	100	100	1	0
212	4	27	P	P	f	970.1	1	3	24	7	56	c	n	1320.0	1	100	100	1	0
212	4	28	N	N	d	1053.71	0	2	24	8	56	c	n	1304.35	1	100	100	1	0
212	4	29	P	P	f	652.84	1	3	56	7	24	i	j	2255.29	1	1000	1000	1	0
212	4	30	P	P	f	936.33	1	4	56	8	24	i	j	987.19	1	100	100	0	0
212	4	31	P	P	f	836.77	1	7	24	3	56	i	n	703.8	1	100	100	0	0
212	4	32	P	P	f	701.14	1	8	56	4	24	c	j	770.26	1	100	1000	0	0
212	4	33	N	N	d	2038.38	0	8	24	2	56	i	j	686.35	1	1000	1000	1	0
212	4	34	P	P	f	769.61	1	8	24	3	56	i	j	1752.31	0	1000	1000	1	0
212	4	35	P	P	f	836.96	1	8	24	2	56	i	n	920.16	1	1000	1000	0	1
212	4	36	N	N	d	836.58	0	3	24	8	56	c	n	834.57	1	1000	100	1	0
212	4	37	P	P	f	970.52	1	4	24	8	56	c	n	3123.13	1	100	1000	1	0
212	4	38	P	P	f	1086.49	1	8	56	2	24	c	j	753.23	1	1000	100	0	0
212	4	39	N	N	d	853.39	0	3	56	8	24	i	n	1104.43	1	100	1000	1	0
212	4	40	P	P	f	803.06	1	7	56	2	24	c	j	2221.49	1	1000	100	1	0
212	4	41	P	P	f	2371.56	1	4	56	9	24	i	j	1270.22	1	100	1000	0	0
212	4	42	N	N	d	1253.51	0	7	56	3	24	c	j	1020.42	1	1000	1000	1	0
212	4	43	N	N	d	1301.58	0	8	56	4	24	c	j	1721.09	1	1000	1000	0	0
212	4	44	N	N	d	803.37	0	2	56	9	24	i	n	1504.03	1	100	1000	0	0
212	4	45	N	N	d	1103.11	0	4	56	9	24	i	n	1168.83	1	1000	1000	0	0
212	4	46	N	N	d	1954.72	0	2	56	8	24	i	n	1271.95	1	100	100	0	0
212	4	47	N	N	d	769.31	0	7	24	4	56	i	j	1021.06	1	1000	100	0	0
212	4	48	N	N	d	1553.9	0	9	56	2	24	c	j	903.38	1	1000	100	0	0
212	4	49	P	P	f	1186.67	1	9	24	4	56	i	n	1453.79	1	1000	100	1	0
212	4	50	N	N	d	869.94	0	8	56	3	24	c	j	1287.52	1	1000	100	1	0
212	4	51	P	P	f	2204.7	1	8	56	2	24	c	j	803.27	1	100	1000	1	0
212	4	52	P	P	f	951.42	1	8	24	4	56	i	n	1504.41	1	1000	100	0	0
212	4	53	P	P	f	1337.32	1	7	24	3	56	i	n	736.91	1	100	1000	0	0
212	4	54	P	P	f	1220.34	1	9	56	4	24	c	j	936.45	1	100	100	0	0
212	4	55	N	N	d	820.28	0	2	24	9	56	c	n	686.23	1	1000	1000	1	0
212	4	56	P	P	f	1020.25	1	9	56	4	24	c	j	1020.71	1	100	100	1	0
212	4	57	N	N	d	986.84	0	8	24	2	56	i	j	1535.32	1	1000	100	1	0
212	4	58	N	N	d	936.88	0	4	24	8	56	c	n	719.87	1	100	1000	0	0
212	4	59	P	P	f	836.54	1	2	56	9	24	i	j	1087.11	1	100	100	1	0
212	4	60	N	N	d	837.06	0	3	24	8	56	c	n	836.03	1	100	1000	1	0
212	4	61	N	N	d	836.49	0	2	24	8	56	c	n	853.15	1	100	100	0	0
212	4	62	P	P	f	753.15	1	4	56	9	24	i	j	1337.73	1	1000	100	1	0
212	4	63	N	N	d	736.88	0	2	56	9	24	i	n	919.76	1	100	100	1	0
212	4	64	N	N	d	1036.88	0	9	24	4	56	i	j	1120.73	1	100	100	0	0
212	4	65	N	N	d	785.08	0	7	56	3	24	c	j	901.38	1	100	1000	0	0
212	5	1	N	N	d	904.32	0	9	56	3	24	c	j	936.68	1	1000	100	-1	0
212	5	2	P	P	f	819.58	1	8	24	4	56	i	n	903.59	1	100	1000	1	0
212	5	3	P	P	f	3539.5	1	3	24	7	56	c	n	803.51	1	1000	100	0	0
212	5	4	P	P	f	686.29	1	4	56	7	24	i	j	1054.0	1	100	1000	0	0
212	5	5	P	P	f	719.2	1	3	56	9	24	i	j	986.6	1	100	100	0	0
212	5	6	N	N	f	786.63	0	7	56	4	24	c	j	737.08	1	1000	100	1	0
212	5	7	N	N	d	1185.66	0	9	56	3	24	c	j	1237.01	1	1000	1000	0	0
212	5	8	P	P	f	803.62	1	4	24	9	56	c	n	937.06	1	1000	100	1	0
212	5	9	N	N	d	936.17	0	8	56	2	24	c	j	736.51	1	1000	1000	1	0
212	5	10	P	P	f	652.86	1	9	56	4	24	c	j	869.94	1	1000	1000	1	0
212	5	11	N	N	d	886.79	0	7	56	3	24	c	j	853.82	1	100	100	1	0
212	5	12	P	P	f	702.71	1	2	24	7	56	c	n	870.27	1	1000	1000	1	0
212	5	13	P	P	f	3873.47	1	7	56	3	24	c	j	870.0	1	1000	100	0	0
212	5	14	P	P	f	1017.69	1	2	56	7	24	i	j	1321.02	1	1000	1000	0	0
212	5	15	N	N	d	1070.19	0	7	56	4	24	c	j	836.69	1	100	1000	1	0
212	5	16	P	P	f	836.89	1	3	24	9	56	c	n	836.5	1	100	1000	1	0
212	5	17	P	P	f	719.76	1	7	24	4	56	i	n	1621.66	1	1000	1000	0	0
212	5	18	P	P	f	1370.53	1	2	24	7	56	c	n	903.93	1	100	1000	0	0
212	5	19	P	P	f	1519.92	1	7	56	4	24	c	j	1171.1	1	100	100	0	0
212	5	20	P	P	f	719.59	1	2	56	8	24	i	j	1254.07	1	1000	100	0	0
212	5	21	P	P	f	853.14	1	4	24	9	56	c	n	935.38	1	1000	1000	0	0
212	5	22	P	P	f	1186.89	1	9	24	2	56	i	n	735.85	1	100	1000	0	0
212	5	23	N	N	d	1821.09	0	8	24	3	56	i	j	1067.95	1	100	100	1	0
212	5	24	N	N	d	684.37	0	4	56	7	24	i	n	1204.58	1	100	1000	0	0
212	5	25	P	P	f	753.5	1	7	24	3	56	i	n	1487.31	1	1000	1000	1	0
212	5	26	N	N	d	820.37	0	9	24	2	56	i	j	836.9	1	1000	100	1	0
212	5	27	N	N	d	720.01	0	4	56	8	24	i	n	870.06	1	1000	100	0	0
212	5	28	N	N	d	653.28	0	7	56	2	24	c	j	767.77	1	1000	100	0	0
212	5	29	N	N	d	836.68	0	8	24	4	56	i	j	886.28	1	100	100	0	0
212	5	30	N	N	d	903.39	0	2	24	7	56	c	n	936.67	1	1000	1000	0	0
212	5	31	P	P	f	1921.11	1	7	56	4	24	c	j	1303.78	1	1000	100	1	0
212	5	32	N	N	d	753.04	0	2	24	9	56	c	n	870.75	1	1000	1000	1	0
212	5	33	N	N	d	1486.97	0	3	56	8	24	i	n	851.8	1	1000	1000	0	0
212	5	34	N	N	d	736.58	0	2	24	9	56	c	n	753.19	1	1000	100	0	0
212	5	35	P	P	f	2302.85	1	8	56	3	24	c	j	2922.55	1	100	1000	1	0
212	5	36	N	N	d	884.73	0	4	56	9	24	i	n	902.0	1	1000	1000	1	0
212	5	37	P	P	f	986.77	1	3	56	9	24	i	j	1220.99	1	100	100	1	0
212	5	38	N	N	d	769.99	0	4	24	9	56	c	n	1070.93	1	100	1000	1	0
212	5	39	N	N	d	1604.52	0	3	56	9	24	i	n	1469.92	1	100	100	0	0
212	5	40	N	N	d	186.12	0	9	24	4	56	i	j	2406.02	1	1000	100	0	0
212	5	41	P	P	f	936.6	1	2	24	8	56	c	n	903.3	1	100	100	1	0
212	5	42	N	N	d	1537.03	0	4	56	9	24	i	n	2254.78	1	100	100	1	0
212	5	43	P	P	f	719.83	1	3	56	7	24	i	j	1153.21	1	1000	100	1	0
212	5	44	N	N	d	803.6	0	2	56	7	24	i	n	1754.52	1	1000	100	1	0
212	5	45	N	N	d	733.87	0	9	56	3	24	c	j	1084.92	1	100	1000	0	0
212	5	46	P	P	f	920.23	1	9	56	2	24	c	j	853.2	1	100	100	1	0
212	5	47	P	P	f	786.52	1	8	24	3	56	i	n	837.1	1	1000	100	0	0
212	5	48	N	N	d	920.26	0	2	24	9	56	c	n	685.84	1	100	100	1	0
212	5	49	P	P	f	753.39	1	9	24	4	56	i	n	3655.95	1	100	100	1	0
212	5	50	P	P	f	803.27	1	9	56	2	24	c	j	769.26	1	100	1000	0	0
212	5	51	N	N	d	852.8	0	7	24	3	56	i	j	2405.8	1	100	1000	1	0
212	5	52	N	N	d	786.51	0	9	24	4	56	i	j	920.15	1	1000	1000	0	0
212	5	53	P	P	f	820.57	1	3	56	7	24	i	j	1518.73	1	1000	1000	1	0
212	5	54	P	P	f	718.47	1	9	56	2	24	c	j	770.1	1	1000	1000	0	0
212	5	55	P	P	f	2321.71	1	4	24	9	56	c	n	803.65	1	100	100	0	0
212	5	56	N	N	d	770.49	0	3	24	8	56	c	n	717.82	1	1000	100	1	0
212	5	57	N	N	d	753.03	0	9	56	2	24	c	j	703.88	1	100	100	0	0
212	5	58	N	N	d	735.89	0	9	24	3	56	i	j	1437.3	1	100	1000	0	0
212	5	59	N	N	d	770.03	0	4	24	9	56	c	n	703.78	1	100	1000	0	0
212	5	60	P	P	f	936.64	1	7	24	3	56	i	n	1287.96	1	1000	100	1	0
212	5	61	N	N	d	636.76	0	9	24	4	56	i	j	736.35	1	1000	1000	1	0
212	5	62	P	P	f	819.99	1	3	56	8	24	i	j	1604.47	1	100	1000	1	0
212	5	63	P	P	f	769.28	1	7	24	2	56	i	n	719.61	1	100	100	0	0
212	5	64	N	N	d	903.61	0	3	56	8	24	i	n	1220.89	1	100	1000	1	0
212	5	65	N	N	d	786.47	0	4	24	8	56	c	n	670.25	1	100	100	0	0
212	6	1	P	P	f	1620.62	1	3	56	7	24	i	j	2154.81	1	100	1000	-1	0
212	6	2	P	P	f	1035.28	1	8	24	4	56	i	n	786.88	1	100	100	0	0
212	6	3	N	N	d	669.57	0	3	24	7	56	c	n	887.89	1	1000	100	1	0
212	6	4	P	P	f	2603.23	1	9	56	2	24	c	j	1253.92	1	1000	1000	1	0
212	6	5	N	N	d	669.68	0	4	56	9	24	i	n	1153.35	1	1000	100	1	0
212	6	6	N	N	d	1036.08	0	3	56	9	24	i	n	836.51	1	100	100	0	0
212	6	7	P	P	f	1303.78	1	2	24	8	56	c	n	1355.22	1	1000	100	1	0
212	6	8	P	P	f	886.44	1	3	24	8	56	c	n	904.4	1	1000	100	0	0
212	6	9	N	N	d	903.48	0	8	56	2	24	c	j	853.45	1	1000	1000	1	0
212	6	10	P	P	f	753.21	1	9	24	4	56	i	n	1168.33	1	100	100	1	0
212	6	11	N	N	d	686.22	0	7	56	3	24	c	j	669.32	1	100	100	1	0
212	6	12	P	P	f	703.08	1	2	56	9	24	i	n	1070.14	0	100	1000	1	0
212	6	13	P	P	f	1087.01	1	7	24	4	56	i	n	969.53	1	1000	100	0	1
212	6	14	P	P	f	702.72	1	2	24	7	56	c	n	786.75	1	100	1000	0	0
212	6	15	P	P	f	836.73	1	9	24	4	56	i	n	854.01	1	1000	1000	0	0
212	6	16	N	N	d	769.8	0	2	56	7	24	i	n	751.25	1	100	1000	1	0
212	6	17	N	N	d	736.45	0	4	56	7	24	i	n	669.22	1	100	1000	0	0
212	6	18	N	N	d	819.98	0	7	56	2	24	c	j	2638.95	1	1000	100	0	0
212	6	19	P	P	f	770.19	1	7	24	4	56	i	n	886.56	1	1000	100	1	0
212	6	20	N	N	d	903.82	0	9	24	3	56	i	j	736.11	1	1000	1000	1	0
212	6	21	N	N	d	1204.05	0	4	24	8	56	c	n	885.25	1	100	100	0	0
212	6	22	P	P	f	853.15	1	7	56	2	24	c	j	1253.97	1	100	1000	1	0
212	6	23	N	N	d	1087.08	0	8	24	3	56	i	j	1470.74	1	100	100	1	0
212	6	24	N	N	d	2421.03	0	2	56	9	24	i	n	937.09	1	1000	100	0	0
212	6	25	N	N	d	1670.94	0	7	24	3	56	i	j	786.42	1	100	100	0	0
212	6	26	N	N	d	986.44	0	9	56	2	24	c	j	936.56	1	100	1000	0	0
212	6	27	P	P	f	836.58	1	8	56	4	24	c	j	803.37	1	1000	100	1	0
212	6	28	P	P	f	802.96	1	3	24	9	56	c	n	669.94	1	1000	1000	0	0
212	6	29	P	P	f	1420.26	1	4	56	8	24	i	j	1337.38	1	1000	100	0	0
212	6	30	P	P	f	736.5	1	7	56	2	24	c	j	1988.28	1	100	1000	0	0
212	6	31	N	N	d	869.9	0	9	24	3	56	i	j	1603.45	1	1000	100	1	0
212	6	32	P	P	f	2020.98	1	8	24	2	56	i	n	1202.87	1	1000	1000	1	0
212	6	33	P	P	f	919.97	1	3	56	9	24	i	j	1003.71	1	100	1000	0	0
212	6	34	N	N	d	1086.9	0	4	56	8	24	i	n	886.48	1	100	100	1	0
212	6	35	P	P	f	2138.04	1	2	56	8	24	i	j	919.84	1	1000	100	1	0
212	6	36	P	P	f	1303.65	1	3	56	9	24	i	j	2088.55	1	1000	1000	0	0
212	6	37	P	P	f	700.96	1	9	56	4	24	c	j	835.07	1	1000	100	0	0
212	6	38	N	N	d	769.82	0	2	24	9	56	c	n	1203.43	1	100	1000	1	0
212	6	39	N	N	d	803.12	0	3	24	9	56	c	n	686.38	1	100	1000	0	0
212	6	40	N	N	d	653.14	0	4	56	7	24	i	n	1403.74	1	1000	1000	0	0
212	6	41	N	N	d	870.09	0	8	56	3	24	c	j	1036.48	1	100	100	0	0
212	6	42	P	P	f	903.43	1	4	56	7	24	i	j	1670.09	1	100	100	1	0
212	6	43	N	N	d	769.76	0	3	24	9	56	c	n	937.02	1	1000	1000	1	0
212	6	44	P	P	f	1337.45	1	4	24	7	56	c	n	2222.03	1	1000	1000	1	0
212	6	45	P	P	f	1137.0	1	3	56	7	24	i	j	1303.99	1	100	100	0	0
212	6	46	P	P	f	1003.23	1	9	24	4	56	i	n	870.9	1	100	1000	0	0
212	6	47	P	P	f	2454.92	1	9	56	3	24	c	j	934.84	1	1000	1000	0	0
212	6	48	P	P	f	919.86	1	2	24	9	56	c	j	1103.04	0	100	100	0	0
212	6	49	N	N	d	2220.86	0	3	56	8	24	i	n	1337.61	1	1000	1000	1	1
212	6	50	N	N	d	686.23	0	7	56	4	24	c	j	1570.46	1	1000	1000	0	0
212	6	51	P	P	f	2072.17	1	2	56	7	24	i	j	1236.97	1	1000	1000	1	0
212	6	52	N	N	d	837.95	0	7	24	3	56	i	j	2155.29	1	100	1000	1	0
212	6	53	N	N	d	753.62	0	8	24	2	56	i	j	869.72	1	1000	1000	0	0
212	6	54	P	P	f	852.75	1	4	24	8	56	c	n	1153.72	1	100	1000	1	0
212	6	55	N	N	d	753.17	0	9	56	3	24	c	j	1471.11	1	100	1000	1	0
212	6	56	P	P	f	1370.58	1	7	56	2	24	c	j	1053.59	1	100	100	1	0
212	6	57	N	N	d	1887.34	0	4	24	9	56	c	n	853.18	1	100	100	1	0
212	6	58	N	N	d	819.58	0	7	24	2	56	i	j	1337.46	1	100	1000	0	0
212	6	59	P	P	f	1052.91	1	8	24	4	56	i	n	1254.04	1	100	1000	1	0
212	6	60	P	P	f	968.08	1	9	56	3	24	c	j	1004.2	1	100	100	0	0
212	6	61	N	N	d	2788.87	0	8	56	4	24	c	j	966.55	1	1000	100	1	0
212	6	62	N	N	d	869.54	0	8	24	3	56	i	j	1454.29	1	1000	100	0	0
212	6	63	N	N	d	2672.16	0	2	24	8	56	c	n	970.21	1	1000	100	0	0
212	6	64	N	N	d	936.38	0	4	24	7	56	c	n	653.23	1	1000	1000	0	0
212	6	65	P	P	f	719.89	1	3	24	9	56	c	n	1237.66	1	100	100	1	0
