subj	block	trial	task_cue	task	choice_resp	choiceRT	choice_acc	topnum	topsize	botnum	botsize	cong	task_resp	taskRT	task_acc	RSI	CSI	altRep	E1
214	1	1	P	P	d	769.65	1	9	24	4	56	i	n	969.58	1	1000	100	-1	0
214	1	2	N	N	f	720.33	0	2	56	8	24	i	n	552.97	1	1000	1000	1	0
214	1	3	N	N	f	619.67	0	3	56	9	24	i	n	502.93	1	1000	1000	0	0
214	1	4	N	N	f	620.22	0	2	24	7	56	c	n	636.9	1	1000	100	0	0
214	1	5	N	N	f	836.65	0	4	56	8	24	i	n	754.07	1	100	100	0	0
214	1	6	N	N	f	452.96	0	7	24	3	56	i	j	620.41	1	1000	1000	0	0
214	1	7	N	N	f	652.74	0	9	56	2	24	c	j	570.28	1	100	100	0	0
214	1	8	P	P	d	369.74	1	4	56	8	24	i	j	703.53	1	1000	100	1	0
214	1	9	P	P	d	753.67	1	3	56	7	24	i	j	868.79	1	1000	100	0	0
214	1	10	N	N	f	719.9	0	7	56	4	24	c	j	752.97	1	100	100	1	0
214	1	11	P	P	d	570.46	1	8	56	3	24	c	j	586.66	1	1000	1000	1	0
214	1	12	P	P	d	669.55	1	7	24	4	56	i	n	670.52	1	1000	100	0	0
214	1	13	N	N	f	386.27	0	8	56	2	24	c	j	537.29	1	1000	100	1	0
214	1	14	P	P	d	686.9	1	9	24	4	56	i	n	519.67	1	1000	1000	1	0
214	1	15	N	N	f	519.22	0	8	24	3	56	i	j	1136.96	1	100	100	1	0
214	1	16	P	P	d	669.81	1	4	24	8	56	c	n	870.06	1	100	1000	1	0
214	1	17	P	P	d	853.5	1	2	56	8	24	i	j	770.0	1	100	1000	0	0
214	1	18	P	P	d	486.3	1	9	24	3	56	i	n	653.25	1	100	1000	0	0
214	1	19	N	N	f	586.68	0	8	56	4	24	c	j	603.2	1	100	1000	1	0
214	1	20	N	N	f	734.64	0	8	24	2	56	i	j	1054.02	1	100	1000	0	0
214	1	21	N	N	f	753.32	0	4	24	8	56	c	n	617.5	1	100	1000	0	0
214	1	22	N	N	f	603.21	0	9	56	2	24	c	j	769.04	1	1000	100	0	0
214	1	23	N	N	f	470.07	0	8	56	3	24	c	j	519.89	1	1000	1000	0	0
214	1	24	P	P	d	653.47	1	8	24	4	56	i	n	519.77	1	100	100	1	0
214	1	25	N	N	f	820.99	0	2	24	9	56	c	n	770.32	1	100	1000	1	0
214	1	26	N	N	f	619.26	0	3	24	9	56	c	n	603.04	1	100	100	0	0
214	1	27	P	P	d	386.52	1	2	56	8	24	i	j	937.44	1	1000	1000	1	0
214	1	28	P	P	d	586.18	1	9	24	4	56	i	n	603.6	1	100	100	0	0
214	1	29	P	P	d	687.03	1	2	24	9	56	c	n	737.44	1	1000	100	0	0
214	1	30	P	P	d	936.67	1	7	24	3	56	i	n	634.81	1	1000	1000	0	0
214	1	31	P	P	d	467.56	1	4	24	8	56	c	n	636.57	1	100	100	0	0
214	1	32	N	N	f	486.67	0	2	56	7	24	i	j	734.76	0	1000	100	1	0
214	1	33	N	N	f	1337.65	0	9	56	4	24	c	j	786.89	1	100	1000	0	1
214	1	34	P	P	d	603.35	1	9	56	2	24	c	j	1203.39	1	100	1000	1	0
214	1	35	N	N	f	686.77	0	3	56	9	24	i	n	919.57	1	100	1000	1	0
214	1	36	P	P	d	753.65	1	9	56	2	24	c	j	1337.82	1	100	100	1	0
214	1	37	P	P	d	653.23	1	9	56	4	24	c	j	636.25	1	100	100	0	0
214	1	38	N	N	f	419.25	0	7	24	2	56	i	j	737.15	1	1000	1000	1	0
214	1	39	N	N	f	937.16	0	4	56	9	24	i	n	1037.1	1	100	1000	0	0
214	1	40	P	P	d	687.11	1	2	24	7	56	c	n	1037.08	1	1000	100	1	0
214	1	41	N	N	f	870.34	0	4	24	8	56	c	n	770.53	1	100	100	1	0
214	1	42	P	P	f	620.1	1	2	56	9	24	i	j	2205.71	1	100	100	1	0
214	1	43	N	N	f	870.18	0	8	56	4	24	c	j	1688.48	1	1000	1000	1	0
214	1	44	N	N	f	1186.62	0	9	24	3	56	i	n	1068.23	0	100	100	0	0
214	1	45	P	P	d	1053.98	1	8	24	4	56	i	n	2338.72	1	1000	100	1	1
214	1	46	P	P	d	619.92	1	9	56	3	24	c	j	1070.27	1	1000	100	0	0
214	1	47	N	N	f	887.12	0	4	24	7	56	c	n	1104.36	1	1000	100	1	0
214	1	48	P	P	d	720.42	1	7	24	3	56	i	n	803.95	1	100	1000	1	0
214	1	49	P	P	d	502.98	1	7	56	2	24	c	j	803.43	1	1000	1000	0	0
214	1	50	N	N	f	636.78	0	4	24	7	56	c	n	687.09	1	1000	1000	1	0
214	1	51	P	P	d	751.43	1	3	24	9	56	c	j	1286.96	0	100	100	1	0
214	1	52	N	N	f	1537.56	0	4	56	8	24	i	n	2589.14	1	100	100	1	1
214	1	53	N	N	f	836.42	0	3	56	7	24	i	n	937.26	1	1000	100	0	0
214	1	54	N	N	f	853.68	0	4	24	8	56	c	n	620.52	1	1000	1000	0	0
214	1	55	N	N	f	736.92	0	9	24	3	56	i	j	1270.58	1	1000	100	0	0
214	1	56	P	P	d	786.87	1	8	56	4	24	c	j	1421.0	1	1000	100	1	0
214	1	57	N	N	f	653.36	0	8	24	3	56	i	j	1203.93	1	100	1000	1	0
214	1	58	P	P	d	402.95	1	4	24	8	56	c	n	886.75	1	1000	1000	1	0
214	1	59	P	P	d	603.21	1	3	56	8	24	i	j	970.04	1	100	100	0	0
214	1	60	N	N	f	770.08	0	8	24	2	56	i	j	1020.01	1	1000	100	1	0
214	1	61	P	P	d	686.43	1	4	56	9	24	i	j	719.53	1	100	1000	1	0
214	1	62	P	P	d	887.05	1	8	56	2	24	c	j	1588.26	1	100	1000	0	0
214	1	63	P	P	d	535.67	1	3	24	8	56	c	n	1037.21	1	100	1000	0	0
214	1	64	P	P	d	685.83	1	2	24	7	56	c	n	868.37	1	1000	1000	0	0
214	1	65	P	P	d	551.04	1	3	56	7	24	i	j	969.86	1	1000	1000	0	0
214	2	1	P	P	d	868.13	1	8	56	4	24	c	j	1220.96	1	100	100	-1	0
214	2	2	N	N	f	419.28	0	8	24	3	56	i	j	834.69	1	1000	1000	1	0
214	2	3	N	N	f	553.2	0	8	24	2	56	i	j	1003.18	1	1000	100	0	0
214	2	4	N	N	f	486.63	0	7	56	3	24	c	j	1037.12	1	1000	100	0	0
214	2	5	N	N	f	467.41	0	4	24	9	56	c	n	737.05	1	1000	1000	0	0
214	2	6	N	N	f	603.73	0	2	24	8	56	c	n	583.96	1	100	1000	0	0
214	2	7	P	P	d	718.14	1	4	24	9	56	c	n	586.5	1	1000	1000	1	0
214	2	8	N	N	f	536.92	0	9	24	3	56	i	j	1070.9	1	1000	100	1	0
214	2	9	P	P	d	803.7	1	8	24	4	56	i	n	667.95	1	1000	100	1	0
214	2	10	P	P	d	703.23	1	3	24	9	56	c	n	670.04	1	100	1000	0	0
214	2	11	N	N	f	586.64	0	4	56	8	24	i	n	670.18	1	1000	1000	1	0
214	2	12	N	N	f	803.57	0	8	56	2	24	c	j	936.99	1	100	100	0	0
214	2	13	P	P	d	652.62	1	7	24	3	56	i	n	1003.89	1	100	100	1	0
214	2	14	N	N	f	404.01	0	8	56	4	24	c	j	703.28	1	1000	100	1	0
214	2	15	P	P	d	636.88	1	2	56	9	24	i	j	819.98	1	100	100	1	0
214	2	16	P	P	d	586.01	1	4	56	7	24	i	j	770.12	1	100	100	0	0
214	2	17	P	P	d	419.79	1	3	56	7	24	i	j	636.65	1	100	1000	0	0
214	2	18	N	N	f	536.33	0	7	56	2	24	c	j	803.72	1	100	1000	1	0
214	2	19	P	P	d	484.2	1	7	24	4	56	i	n	653.35	1	1000	1000	1	0
214	2	20	P	P	d	886.52	1	9	24	3	56	i	n	669.9	1	100	100	0	0
214	2	21	N	N	f	452.85	0	8	56	2	24	c	j	669.33	1	1000	1000	1	0
214	2	22	P	P	d	753.48	1	3	56	8	24	i	j	736.77	1	1000	1000	1	0
214	2	23	N	N	f	637.3	0	9	24	4	56	i	j	1036.41	1	100	100	1	0
214	2	24	N	N	f	786.57	0	3	56	9	24	i	n	1120.51	1	1000	100	0	0
214	2	25	N	N	f	686.75	0	2	56	9	24	i	n	803.17	1	100	100	0	0
214	2	26	P	P	d	567.78	1	9	24	4	56	i	n	1254.59	1	100	1000	1	0
214	2	27	N	N	f	736.81	0	3	56	8	24	i	n	1020.07	1	100	100	1	0
214	2	28	N	N	f	569.95	0	9	56	4	24	c	j	637.04	1	100	1000	0	0
214	2	29	N	N	f	700.96	0	2	56	9	24	i	n	820.42	1	1000	1000	0	0
214	2	30	N	N	f	670.93	0	4	24	8	56	c	n	1586.01	1	1000	100	0	0
214	2	31	P	P	d	686.54	1	7	56	3	24	c	j	754.02	1	1000	1000	1	0
214	2	32	P	P	d	502.68	1	4	56	8	24	i	j	703.87	1	1000	1000	0	0
214	2	33	P	P	d	1005.67	1	9	24	3	56	i	n	636.47	1	1000	100	0	0
214	2	34	P	P	d	520.06	1	7	56	4	24	c	j	553.66	1	100	100	0	0
214	2	35	P	P	d	453.08	1	8	24	2	56	i	n	685.81	1	1000	1000	0	0
214	2	36	P	P	d	519.13	1	7	56	3	24	c	j	668.34	1	1000	100	0	0
214	2	37	P	P	d	485.86	1	4	24	7	56	c	n	987.85	1	1000	100	0	0
214	2	38	P	P	d	452.51	1	3	24	7	56	c	n	536.11	1	1000	1000	0	0
214	2	39	P	P	d	619.28	1	9	24	4	56	i	n	552.85	1	100	1000	0	0
214	2	40	N	N	f	803.45	0	2	56	8	24	i	n	787.22	1	100	1000	1	0
214	2	41	P	P	d	670.27	1	9	56	3	24	c	j	1237.7	1	100	100	1	0
214	2	42	N	N	f	403.77	0	8	24	4	56	i	j	970.54	1	100	1000	1	0
214	2	43	P	P	d	653.8	1	3	56	8	24	i	j	803.44	1	1000	100	1	0
214	2	44	P	P	d	536.33	1	4	24	7	56	c	n	803.28	1	100	100	0	0
214	2	45	P	P	d	469.69	1	7	56	3	24	c	j	1086.73	1	100	1000	0	0
214	2	46	N	N	f	586.55	0	2	24	8	56	c	n	637.24	1	100	100	1	0
214	2	47	N	N	f	420.07	0	8	24	3	56	i	j	1018.72	1	100	1000	0	0
214	2	48	N	N	f	467.94	0	9	24	4	56	i	j	887.05	1	100	100	0	0
214	2	49	P	P	f	386.44	1	3	56	9	24	i	j	1605.03	1	100	1000	1	0
214	2	50	N	N	f	770.16	0	4	24	7	56	c	n	1470.89	1	1000	100	1	0
214	2	51	P	P	d	737.05	1	9	56	3	24	c	j	884.72	1	100	1000	1	0
214	2	52	P	P	d	686.88	1	4	56	7	24	i	j	937.3	1	1000	100	0	0
214	2	53	N	N	f	486.61	0	2	56	7	24	i	n	986.66	1	1000	100	1	0
214	2	54	P	P	d	685.89	1	3	24	7	56	c	n	652.17	1	1000	100	1	0
214	2	55	N	N	f	1120.52	0	2	24	8	56	c	n	553.74	1	1000	1000	1	0
214	2	56	N	N	f	1187.09	0	9	56	3	24	c	j	1402.38	1	1000	1000	0	0
214	2	57	P	P	d	419.93	1	7	56	2	24	c	j	1204.73	1	1000	100	1	0
214	2	58	N	N	f	770.02	0	8	56	4	24	c	j	753.47	1	100	100	1	0
214	2	59	N	N	f	536.41	0	3	24	9	56	c	n	717.59	1	100	100	0	0
214	2	60	N	N	f	519.85	0	8	24	2	56	i	j	886.88	1	1000	1000	0	0
214	2	61	N	N	f	586.72	0	3	56	8	24	i	n	603.25	1	100	1000	0	0
214	2	62	P	P	d	686.67	1	2	24	9	56	c	n	536.54	1	100	1000	1	0
214	2	63	P	P	d	1120.33	1	8	56	3	24	c	j	987.07	1	1000	1000	0	0
214	2	64	N	N	f	602.72	0	2	24	8	56	c	n	770.41	1	100	1000	1	0
214	2	65	P	P	d	669.85	1	3	24	7	56	c	n	836.47	1	100	100	1	0
214	3	1	N	N	f	669.59	0	3	56	7	24	i	n	636.48	1	1000	1000	-1	0
214	3	2	P	P	d	619.9	1	9	56	4	24	c	j	753.34	1	1000	100	1	0
214	3	3	P	P	d	703.4	1	9	56	3	24	c	j	651.88	1	1000	1000	0	0
214	3	4	P	P	d	470.37	1	2	24	7	56	c	n	650.77	1	100	100	0	0
214	3	5	N	N	f	736.76	0	3	56	9	24	i	n	1170.93	1	100	1000	1	0
214	3	6	P	P	d	1204.1	1	4	56	7	24	i	n	1304.14	0	100	100	1	0
214	3	7	P	P	d	1253.82	1	2	24	9	56	c	n	818.55	1	1000	1000	0	1
214	3	8	N	N	f	870.55	0	3	24	9	56	c	n	1053.64	1	1000	1000	1	0
214	3	9	N	N	f	784.63	0	4	56	7	24	i	j	1037.51	0	100	1000	0	0
214	3	10	P	P	d	1037.13	1	3	56	7	24	i	j	720.21	1	100	1000	1	1
214	3	11	N	N	f	736.66	0	2	24	8	56	c	n	836.98	1	100	1000	1	0
214	3	12	N	N	f	503.04	0	7	56	4	24	c	j	853.46	1	1000	1000	0	0
214	3	13	N	N	f	520.05	0	3	24	8	56	c	n	653.77	1	1000	100	0	0
214	3	14	P	P	d	435.81	1	7	24	2	56	i	n	502.92	1	1000	1000	1	0
214	3	15	P	P	d	586.52	1	8	24	3	56	i	n	920.79	1	1000	100	0	0
214	3	16	P	P	d	569.75	1	9	56	4	24	c	j	436.27	1	100	1000	0	0
214	3	17	N	N	f	903.62	0	3	56	7	24	i	n	970.44	1	1000	100	1	0
214	3	18	P	P	d	603.04	1	2	24	9	56	c	n	969.71	1	1000	1000	1	0
214	3	19	N	N	f	653.35	0	4	24	9	56	c	n	936.06	1	1000	100	1	0
214	3	20	P	P	d	469.98	1	9	24	3	56	i	n	1287.18	1	1000	100	1	0
214	3	21	N	N	f	586.47	0	9	56	4	24	c	j	638.14	1	1000	1000	1	0
214	3	22	N	N	f	686.47	0	9	24	3	56	i	j	1201.32	1	1000	100	0	0
214	3	23	N	N	f	570.18	0	7	24	2	56	i	j	1218.4	1	100	1000	0	0
214	3	24	N	N	f	670.02	0	9	56	3	24	c	j	719.71	1	1000	100	0	0
214	3	25	P	P	d	569.69	1	4	24	9	56	c	n	653.34	1	100	1000	1	0
214	3	26	P	P	d	569.74	1	2	56	7	24	i	j	1087.19	1	100	1000	0	0
214	3	27	P	P	d	720.32	1	8	56	3	24	c	j	603.22	1	1000	100	0	0
214	3	28	P	P	d	453.14	1	9	24	2	56	i	n	586.31	1	1000	1000	0	0
214	3	29	P	P	d	569.59	1	4	24	8	56	c	n	603.34	1	100	1000	0	0
214	3	30	N	N	f	452.84	0	7	24	2	56	i	j	586.54	1	1000	1000	1	0
214	3	31	P	P	d	603.24	1	8	56	4	24	c	j	1554.55	1	100	100	1	0
214	3	32	P	P	d	803.78	1	9	56	3	24	c	j	754.23	1	100	100	0	0
214	3	33	P	P	d	553.44	1	8	24	4	56	i	n	970.79	1	100	1000	0	0
214	3	34	P	P	d	669.94	1	9	24	2	56	i	n	954.24	1	100	100	0	0
214	3	35	P	P	d	717.45	1	4	56	7	24	i	j	536.38	1	100	100	0	0
214	3	36	N	N	f	636.76	0	8	56	3	24	c	j	786.88	1	100	100	1	0
214	3	37	N	N	f	836.99	0	2	24	8	56	c	n	837.7	1	100	1000	0	0
214	3	38	N	N	f	737.69	0	7	56	4	24	c	j	586.91	1	100	1000	0	0
214	3	39	P	P	d	569.32	1	8	24	3	56	i	n	1037.51	1	100	100	1	0
214	3	40	N	N	f	534.47	0	4	24	7	56	c	n	1170.63	1	100	100	1	0
214	3	41	N	N	f	553.31	0	3	56	9	24	i	n	619.12	1	1000	1000	0	0
214	3	42	N	N	f	617.72	0	7	24	4	56	i	j	870.12	1	100	100	0	0
214	3	43	P	P	d	620.09	1	8	24	2	56	i	n	1170.61	1	100	1000	1	0
214	3	44	N	N	f	570.49	0	3	56	7	24	i	n	1136.87	1	100	100	1	0
214	3	45	N	N	f	503.13	0	2	24	8	56	c	n	686.78	1	100	100	0	0
214	3	46	P	P	d	603.51	1	7	56	4	24	c	j	570.26	1	1000	1000	1	0
214	3	47	P	P	d	703.52	1	2	56	9	24	i	j	1254.23	1	1000	100	0	0
214	3	48	N	N	f	369.55	0	3	56	8	24	i	n	569.87	1	1000	1000	1	0
214	3	49	P	P	d	553.49	1	2	56	9	24	i	j	970.4	1	1000	1000	1	0
214	3	50	P	P	d	920.14	1	4	56	8	24	i	j	1037.24	1	1000	1000	0	0
214	3	51	N	N	f	553.18	0	8	56	3	24	c	j	1003.89	1	1000	100	1	0
214	3	52	P	P	d	653.11	1	4	24	8	56	c	n	753.8	1	100	100	1	0
214	3	53	P	P	d	436.42	1	2	24	8	56	c	n	569.87	1	1000	100	0	0
214	3	54	N	N	f	653.29	0	8	56	4	24	c	j	536.58	1	100	1000	1	0
214	3	55	P	P	d	569.77	1	8	56	3	24	c	j	436.37	1	100	1000	1	0
214	3	56	N	N	f	869.7	0	8	24	2	56	i	n	752.63	0	100	100	1	0
214	3	57	N	N	f	1587.26	0	3	56	9	24	i	n	936.55	1	1000	100	0	1
214	3	58	N	N	f	669.72	0	7	56	2	24	c	j	986.87	1	100	100	0	0
214	3	59	N	N	f	503.14	0	3	56	8	24	i	n	703.77	1	100	100	0	0
214	3	60	P	P	d	486.67	1	4	24	8	56	c	n	836.95	1	1000	100	1	0
214	3	61	N	N	f	1637.85	0	9	24	3	56	i	j	970.31	1	100	1000	1	0
214	3	62	N	N	f	770.13	0	2	24	7	56	c	n	636.97	1	1000	1000	0	0
214	3	63	P	P	d	836.52	1	4	56	7	24	i	j	719.34	1	1000	100	1	0
214	3	64	N	N	f	817.95	0	9	24	3	56	i	j	904.53	1	1000	100	1	0
214	3	65	N	N	f	486.37	0	8	24	4	56	i	j	1036.47	1	1000	1000	0	0
214	4	1	P	P	d	1720.49	1	7	24	3	56	i	n	1070.61	1	1000	100	-1	0
214	4	2	P	P	d	1118.25	1	8	56	2	24	c	j	604.05	1	1000	100	0	0
214	4	3	P	P	d	686.72	1	4	56	9	24	i	j	687.0	1	1000	100	0	0
214	4	4	N	N	f	553.06	0	2	24	8	56	c	n	501.18	1	100	1000	1	0
214	4	5	N	N	f	786.86	0	7	24	4	56	i	j	954.07	1	1000	100	0	0
214	4	6	N	N	f	870.36	0	3	56	9	24	i	n	719.91	1	100	100	0	0
214	4	7	P	P	d	619.31	1	4	56	8	24	i	j	853.39	1	100	100	1	0
214	4	8	N	N	f	1337.01	0	7	56	3	24	c	j	503.27	1	1000	1000	1	0
214	4	9	P	P	d	554.07	1	9	24	4	56	i	n	736.92	1	1000	100	1	0
214	4	10	P	P	d	570.06	1	8	24	2	56	i	n	886.07	1	1000	100	0	0
214	4	11	P	P	d	720.02	1	4	56	9	24	i	j	636.88	1	100	1000	0	0
214	4	12	N	N	f	870.31	0	2	56	7	24	i	n	669.89	1	1000	1000	1	0
214	4	13	N	N	f	719.53	0	7	24	3	56	i	j	987.14	1	100	1000	0	0
214	4	14	N	N	f	619.89	0	8	56	4	24	c	j	637.18	1	100	100	0	0
214	4	15	P	P	d	1153.9	1	3	24	9	56	c	n	1137.35	1	100	100	1	0
214	4	16	P	P	d	603.68	1	8	24	2	56	i	n	703.93	1	100	100	0	0
214	4	17	N	N	f	534.74	0	9	56	4	24	c	j	569.84	1	100	1000	1	0
214	4	18	N	N	f	686.7	0	2	56	8	24	i	n	554.06	1	100	1000	0	0
214	4	19	P	P	d	519.6	1	4	24	7	56	c	n	870.23	1	1000	100	1	0
214	4	20	N	N	f	619.94	0	2	24	7	56	c	n	1203.4	1	100	100	1	0
214	4	21	N	N	f	336.33	0	9	56	3	24	c	j	836.97	1	1000	1000	0	0
214	4	22	N	N	f	603.47	0	8	56	4	24	c	j	903.7	1	100	1000	0	0
214	4	23	N	N	f	620.96	0	9	24	3	56	i	j	970.48	1	100	100	0	0
214	4	24	N	N	f	586.94	0	2	56	8	24	i	n	734.52	1	1000	1000	0	0
214	4	25	P	P	d	452.99	1	4	56	7	24	i	j	869.86	1	1000	100	1	0
214	4	26	N	N	f	536.77	0	8	56	2	24	c	j	886.65	1	1000	100	1	0
214	4	27	P	P	d	502.51	1	4	56	9	24	i	j	1304.38	1	1000	1000	1	0
214	4	28	N	N	f	1187.35	0	7	24	2	56	i	j	653.48	1	100	100	1	0
214	4	29	P	P	d	502.87	1	4	24	8	56	c	n	886.98	1	100	1000	1	0
214	4	30	N	N	f	736.8	0	3	24	7	56	c	n	1569.35	1	1000	100	1	0
214	4	31	P	P	d	486.64	1	7	56	4	24	c	j	1370.04	1	1000	1000	1	0
214	4	32	P	P	d	803.6	1	8	24	3	56	i	n	2505.64	1	1000	1000	0	0
214	4	33	P	P	d	903.89	1	2	56	8	24	i	j	986.86	1	1000	1000	0	0
214	4	34	P	P	d	535.96	1	3	24	8	56	c	n	753.11	1	100	1000	0	0
214	4	35	P	P	d	536.54	1	9	56	4	24	c	j	687.64	1	100	100	0	0
214	4	36	P	P	d	553.26	1	2	24	8	56	c	n	636.86	1	100	100	0	0
214	4	37	P	P	d	519.81	1	7	56	3	24	c	j	604.08	1	100	1000	0	0
214	4	38	N	N	f	636.82	0	7	24	2	56	i	j	970.49	1	100	1000	1	0
214	4	39	P	P	d	620.86	1	8	56	3	24	c	j	1019.9	1	100	1000	1	0
214	4	40	N	N	f	319.18	0	2	56	9	24	i	n	970.12	1	1000	100	1	0
214	4	41	N	N	f	452.32	0	7	56	3	24	c	j	903.95	1	1000	100	0	0
214	4	42	N	N	f	469.78	0	4	24	9	56	c	n	720.21	1	100	1000	0	0
214	4	43	P	P	d	619.14	1	7	56	2	24	c	j	1337.26	1	1000	100	1	0
214	4	44	N	N	f	353.22	0	3	24	8	56	c	n	570.13	1	1000	1000	1	0
214	4	45	P	P	d	503.3	1	4	56	8	24	i	j	1254.02	1	100	1000	1	0
214	4	46	N	N	f	1020.11	0	7	56	3	24	c	j	703.89	1	100	100	1	0
214	4	47	N	N	f	469.65	0	9	24	4	56	i	j	770.53	1	1000	1000	0	0
214	4	48	P	P	d	369.25	1	7	24	2	56	i	n	1020.43	1	1000	1000	1	0
214	4	49	P	P	d	553.11	1	4	24	9	56	c	n	853.21	1	1000	1000	0	0
214	4	50	P	P	d	584.29	1	8	56	2	24	c	j	534.62	1	1000	1000	0	0
214	4	51	N	N	f	885.4	0	3	56	7	24	i	n	736.85	1	100	1000	1	0
214	4	52	N	N	f	1621.83	0	4	56	7	24	i	n	1868.17	1	1000	100	0	0
214	4	53	N	N	f	636.33	0	2	24	9	56	c	n	653.65	1	100	100	0	0
214	4	54	P	P	d	536.45	1	9	56	3	24	c	j	600.67	1	100	100	1	0
214	4	55	N	N	f	485.97	0	7	24	4	56	i	j	704.04	1	1000	1000	1	0
214	4	56	P	P	d	469.94	1	3	24	9	56	c	n	570.49	1	1000	1000	1	0
214	4	57	N	N	f	687.49	0	2	56	7	24	i	n	603.53	1	100	100	1	0
214	4	58	N	N	f	570.04	0	3	24	9	56	c	n	486.03	1	1000	1000	0	0
214	4	59	P	P	d	1037.01	1	8	24	4	56	i	n	1203.66	1	100	100	1	0
214	4	60	P	P	d	470.0	1	2	24	9	56	c	n	534.77	1	1000	100	0	0
214	4	61	N	N	f	535.92	0	9	24	4	56	i	j	651.18	1	1000	100	1	0
214	4	62	N	N	f	1003.75	0	2	24	7	56	c	n	536.35	1	1000	100	0	0
214	4	63	P	P	d	502.71	1	9	24	4	56	i	n	534.35	1	100	1000	1	0
214	4	64	P	P	f	937.03	1	8	24	3	56	i	n	1237.32	1	100	1000	0	0
214	4	65	P	P	d	667.67	1	2	56	8	24	i	j	1104.23	1	100	100	0	0
214	5	1	N	N	f	736.95	0	4	56	7	24	i	n	886.6	1	1000	100	-1	0
214	5	2	P	P	d	536.89	1	8	56	2	24	c	j	603.4	1	100	100	1	0
214	5	3	P	P	d	719.27	1	9	56	3	24	c	j	569.8	1	100	1000	0	0
214	5	4	N	N	f	619.79	0	2	24	9	56	c	n	753.34	1	100	100	1	0
214	5	5	N	N	f	485.99	0	3	56	9	24	i	n	786.48	1	100	1000	0	0
214	5	6	N	N	f	469.15	0	9	24	4	56	i	j	687.54	1	100	100	0	0
214	5	7	P	P	d	402.94	1	8	56	3	24	c	j	920.24	1	1000	100	1	0
214	5	8	N	N	f	385.45	0	8	56	4	24	c	j	736.92	1	1000	1000	1	0
214	5	9	N	N	f	500.9	0	2	24	8	56	c	n	469.72	1	100	1000	0	0
214	5	10	P	P	d	670.81	1	7	56	4	24	c	j	1568.68	1	100	1000	1	0
214	5	11	N	N	f	603.06	0	2	24	8	56	c	n	603.54	1	1000	1000	1	0
214	5	12	P	P	d	1070.81	1	8	56	4	24	c	j	703.17	1	1000	1000	1	0
214	5	13	P	P	d	1203.83	1	3	56	8	24	i	j	753.65	1	100	100	0	0
214	5	14	P	P	d	419.15	1	7	56	2	24	c	j	1004.06	1	1000	100	0	0
214	5	15	P	P	d	418.97	1	4	56	8	24	i	j	719.52	1	1000	100	0	0
214	5	16	P	P	d	720.06	1	9	24	2	56	i	n	485.66	1	100	1000	0	0
214	5	17	N	N	f	1020.51	0	7	24	3	56	i	j	1020.14	1	100	1000	1	0
214	5	18	N	N	f	353.02	0	7	56	4	24	c	j	820.05	1	1000	1000	0	0
214	5	19	N	N	f	602.92	0	9	24	2	56	i	j	770.76	1	100	1000	0	0
214	5	20	N	N	f	519.24	0	4	24	7	56	c	n	718.6	1	100	100	0	0
214	5	21	N	N	f	419.82	0	3	56	7	24	i	n	804.02	1	100	100	0	0
214	5	22	N	N	f	386.45	0	9	56	2	24	c	j	703.69	1	100	100	0	0
214	5	23	P	P	d	553.08	1	4	56	7	24	i	j	669.69	1	100	100	1	0
214	5	24	N	N	f	603.31	0	3	56	7	24	i	n	652.89	1	100	1000	1	0
214	5	25	N	N	f	519.97	0	2	56	7	24	i	n	636.43	1	1000	100	0	0
214	5	26	N	N	f	352.57	0	3	24	7	56	c	n	619.55	1	1000	1000	0	0
214	5	27	N	N	f	453.41	0	9	56	2	24	c	j	553.55	1	100	1000	0	0
214	5	28	P	P	d	420.74	1	4	56	9	24	i	j	937.44	1	1000	100	1	0
214	5	29	N	N	f	586.53	0	9	56	3	24	c	j	620.46	1	1000	100	1	0
214	5	30	P	P	d	452.92	1	8	24	2	56	i	n	1087.22	1	100	1000	1	0
214	5	31	N	N	f	536.4	0	3	56	9	24	i	n	736.45	1	1000	100	1	0
214	5	32	N	N	f	453.37	0	4	24	7	56	c	n	553.78	1	1000	100	0	0
214	5	33	N	N	f	652.98	0	7	56	2	24	c	j	636.6	1	1000	100	0	0
214	5	34	P	P	d	536.23	1	9	24	4	56	i	n	519.92	1	100	100	1	0
214	5	35	N	N	f	386.82	0	3	56	9	24	i	n	653.74	1	100	100	1	0
214	5	36	N	N	f	469.27	0	9	24	2	56	i	j	634.38	1	1000	1000	0	0
214	5	37	N	N	f	419.14	0	8	24	3	56	i	j	1087.2	1	1000	100	0	0
214	5	38	N	N	f	486.08	0	4	56	8	24	i	n	503.73	1	1000	1000	0	0
214	5	39	P	P	d	369.42	1	3	24	7	56	c	n	920.51	1	1000	1000	1	0
214	5	40	P	P	d	536.05	1	4	56	7	24	i	j	736.22	1	100	1000	0	0
214	5	41	P	P	d	453.06	1	7	24	2	56	i	n	520.02	1	1000	1000	0	0
214	5	42	P	P	d	503.2	1	3	24	7	56	c	n	469.83	1	1000	1000	0	0
214	5	43	N	N	f	369.7	0	8	24	2	56	i	j	784.49	1	1000	1000	1	0
214	5	44	P	P	d	452.88	1	3	56	9	24	i	j	937.33	1	1000	1000	1	0
214	5	45	N	N	f	503.31	0	4	24	9	56	c	n	518.99	1	100	1000	1	0
214	5	46	P	P	f	736.81	1	3	24	7	56	c	n	1104.1	1	100	1000	1	0
214	5	47	P	P	d	1119.69	1	8	56	2	24	c	j	953.6	1	1000	1000	0	0
214	5	48	N	N	f	486.73	0	3	24	8	56	c	n	887.2	1	1000	100	1	0
214	5	49	P	P	d	569.87	1	7	24	4	56	i	n	1754.44	1	1000	100	1	0
214	5	50	P	P	d	586.42	1	7	24	3	56	i	n	836.81	1	100	100	0	0
214	5	51	P	P	d	486.82	1	2	24	8	56	c	n	703.73	1	100	100	0	0
214	5	52	P	P	d	486.26	1	4	56	8	24	i	j	819.05	1	1000	1000	0	0
214	5	53	P	P	d	670.37	1	8	56	2	24	c	j	703.35	1	100	100	0	0
214	5	54	N	N	f	1170.59	0	7	24	3	56	i	j	1070.65	1	1000	100	1	0
214	5	55	P	P	d	653.13	1	2	56	9	24	i	j	586.78	1	100	1000	1	0
214	5	56	P	P	d	653.02	1	9	24	4	56	i	n	1303.42	1	1000	100	0	0
214	5	57	N	N	f	586.57	0	3	56	9	24	i	n	1037.36	1	1000	1000	1	0
214	5	58	P	P	d	1334.88	1	4	24	7	56	c	n	886.46	1	100	100	1	0
214	5	59	P	P	d	1153.91	1	3	24	7	56	c	n	1153.92	1	1000	100	0	0
214	5	60	P	P	d	569.86	1	2	24	9	56	c	n	619.42	1	100	1000	0	0
214	5	61	N	N	f	1221.05	0	7	56	3	24	c	j	536.7	1	100	100	1	0
214	5	62	P	P	d	517.58	1	2	24	9	56	c	n	1170.5	1	1000	100	1	0
214	5	63	N	N	f	454.32	0	8	24	3	56	i	j	870.65	1	100	100	1	0
214	5	64	P	P	d	519.77	1	7	24	2	56	i	n	486.95	1	1000	1000	1	0
214	5	65	N	N	f	419.54	0	7	56	4	24	c	j	836.01	1	100	1000	1	0
214	6	1	N	N	f	552.75	0	4	56	8	24	i	n	803.63	1	100	1000	-1	0
214	6	2	N	N	f	703.45	0	9	56	2	24	c	j	954.31	1	1000	100	0	0
214	6	3	P	P	d	436.52	1	9	56	4	24	c	j	1153.27	1	1000	100	1	0
214	6	4	N	N	f	736.78	0	3	24	9	56	c	n	636.77	1	100	1000	1	0
214	6	5	P	P	d	653.53	1	8	56	4	24	c	j	737.21	1	100	1000	1	0
214	6	6	N	N	f	386.41	0	9	24	2	56	i	j	1003.89	1	1000	100	1	0
214	6	7	P	P	d	536.84	1	8	24	4	56	i	n	770.42	1	1000	100	1	0
214	6	8	P	P	d	686.16	1	3	24	9	56	c	n	487.11	1	100	1000	0	0
214	6	9	N	N	f	653.54	0	9	56	4	24	c	j	787.2	1	100	100	1	0
214	6	10	P	P	d	486.42	1	3	24	9	56	c	n	987.33	1	100	1000	1	0
214	6	11	P	P	d	803.34	1	4	56	8	24	i	j	853.96	1	100	100	0	0
214	6	12	N	N	f	369.92	0	8	24	2	56	i	j	901.05	1	1000	1000	1	0
214	6	13	N	N	f	753.67	0	4	24	7	56	c	n	736.03	1	100	100	0	0
214	6	14	P	P	d	469.38	1	2	24	7	56	c	n	517.53	1	100	100	1	0
214	6	15	N	N	f	336.36	0	4	56	9	24	i	n	834.61	1	1000	100	1	0
214	6	16	N	N	f	653.13	0	8	24	3	56	i	j	670.45	1	100	100	0	0
214	6	17	N	N	f	1386.7	0	4	24	8	56	c	n	536.78	1	1000	1000	0	0
214	6	18	N	N	f	486.54	0	2	24	9	56	c	n	1221.07	1	1000	100	0	0
214	6	19	P	P	d	536.77	1	7	56	4	24	c	j	1271.07	1	100	100	1	0
214	6	20	N	N	f	403.1	0	9	56	2	24	c	j	536.6	1	100	1000	1	0
214	6	21	N	N	f	617.84	0	3	56	7	24	i	n	987.07	1	100	100	0	0
214	6	22	P	P	d	1004.04	1	9	24	2	56	i	n	886.71	1	100	1000	1	0
214	6	23	P	P	d	1103.54	1	9	56	3	24	c	j	786.45	1	1000	100	0	0
214	6	24	P	P	d	736.49	1	9	24	2	56	i	n	870.23	1	1000	100	0	0
214	6	25	N	N	f	352.75	0	3	56	7	24	i	n	686.89	1	1000	1000	1	0
214	6	26	N	N	f	653.28	0	7	56	4	24	c	j	669.74	1	100	1000	0	0
214	6	27	N	N	f	1170.67	0	9	24	3	56	i	j	920.5	1	100	1000	0	0
214	6	28	N	N	f	436.23	0	4	56	9	24	i	n	854.09	1	1000	1000	0	0
214	6	29	N	N	f	453.11	0	7	24	3	56	i	j	786.8	1	1000	1000	0	0
214	6	30	N	N	f	736.83	0	2	56	9	24	i	n	653.77	1	1000	100	0	0
214	6	31	N	N	f	619.98	0	8	56	4	24	c	j	536.09	1	1000	1000	0	0
214	6	32	P	P	d	552.82	1	3	24	9	56	c	n	519.64	1	1000	1000	1	0
214	6	33	N	N	f	836.62	0	9	24	2	56	i	j	737.11	1	100	1000	1	0
214	6	34	P	P	d	1537.24	1	4	56	9	24	i	j	1237.86	1	100	1000	1	0
214	6	35	P	P	d	653.49	1	8	24	3	56	i	n	784.79	1	100	100	0	0
214	6	36	N	N	f	436.48	0	4	24	9	56	c	n	1053.76	1	1000	1000	1	0
214	6	37	P	P	d	603.32	1	2	56	7	24	i	j	1101.25	1	100	100	1	0
214	6	38	N	N	f	369.32	0	9	56	3	24	c	j	820.44	1	1000	1000	1	0
214	6	39	N	N	f	652.79	0	7	56	4	24	c	j	653.73	1	100	100	0	0
214	6	40	P	P	d	719.55	1	2	56	7	24	i	j	753.48	1	1000	1000	1	0
214	6	41	N	N	f	436.31	0	3	24	9	56	c	n	736.49	1	1000	100	1	0
214	6	42	P	P	d	353.02	1	4	56	8	24	i	j	653.39	1	1000	100	1	0
214	6	43	P	P	d	603.09	1	2	56	8	24	i	j	753.26	1	1000	100	0	0
214	6	44	P	P	d	436.36	1	7	24	4	56	i	n	569.84	1	1000	1000	0	0
214	6	45	N	N	f	685.94	0	2	24	7	56	c	n	803.58	1	100	100	1	0
214	6	46	P	P	d	503.11	1	7	24	3	56	i	n	768.32	1	100	100	1	0
214	6	47	P	P	d	536.54	1	2	56	7	24	i	j	452.74	1	100	1000	0	0
214	6	48	N	N	f	636.92	0	4	56	8	24	i	n	1320.21	1	100	100	1	0
214	6	49	N	N	f	903.77	0	9	24	2	56	i	n	1170.62	0	1000	100	0	0
214	6	50	P	P	d	2071.76	1	3	24	7	56	c	n	903.07	1	1000	100	1	1
214	6	51	P	P	d	685.61	1	2	56	8	24	i	j	903.86	1	1000	1000	0	0
214	6	52	N	N	f	1587.71	0	3	56	9	24	i	n	870.75	1	100	1000	1	0
214	6	53	N	N	f	937.15	0	4	24	8	56	c	n	1020.95	1	100	1000	0	0
214	6	54	P	P	d	652.41	1	7	24	2	56	i	n	1236.46	1	1000	1000	1	0
214	6	55	P	P	d	736.9	1	3	24	8	56	c	n	1086.19	1	100	100	0	0
214	6	56	P	P	d	619.97	1	8	56	4	24	c	j	887.27	1	100	1000	0	0
214	6	57	P	P	d	1186.92	1	2	24	7	56	c	n	603.56	1	1000	100	0	0
214	6	58	P	P	d	851.22	1	3	24	8	56	c	n	452.96	1	1000	1000	0	0
214	6	59	P	P	d	603.33	1	9	56	2	24	c	j	569.6	1	1000	1000	0	0
214	6	60	N	N	d	787.09	0	7	24	4	56	i	j	1503.86	1	100	100	1	0
214	6	61	P	P	d	686.68	1	7	56	2	24	c	j	953.55	1	1000	1000	1	0
214	6	62	P	P	d	937.47	1	8	24	4	56	i	n	803.44	1	100	1000	0	0
214	6	63	P	P	d	620.05	1	8	56	2	24	c	j	752.86	1	100	100	0	0
214	6	64	N	N	f	686.75	0	8	56	3	24	c	j	1787.22	1	1000	100	1	0
214	6	65	N	N	f	853.52	0	2	56	8	24	i	n	1688.18	1	100	1000	0	0
