subj	block	trial	task_cue	task	choice_resp	choiceRT	choice_acc	topnum	topsize	botnum	botsize	cong	task_resp	taskRT	task_acc	RSI	CSI	altRep	E1
223	1	1	?	N	d	719.85	NA	3	56	8	24	i	n	853.37	1	100	100	-1	0
223	1	2	?	P	f	769.79	NA	4	56	9	24	i	n	702.93	0	100	1000	0	0
223	1	3	?	N	d	669.57	NA	2	24	9	56	c	n	853.58	1	100	1000	0	1
223	1	4	?	P	f	719.95	NA	3	24	8	56	c	n	1170.65	1	100	100	0	0
223	1	5	?	N	d	703.89	NA	2	56	8	24	i	n	753.66	1	100	1000	0	0
223	1	6	?	P	f	569.82	NA	7	56	4	24	c	j	836.77	1	100	100	0	0
223	1	7	?	N	d	486.04	NA	7	24	3	56	i	j	936.06	1	1000	100	0	0
223	1	8	?	P	f	703.1	NA	4	56	7	24	i	n	586.09	0	1000	1000	0	0
223	1	9	?	P	f	1134.87	NA	3	24	9	56	c	n	569.76	1	100	1000	0	1
223	1	10	?	N	d	502.68	NA	8	56	4	24	c	j	484.31	1	1000	1000	0	0
223	1	11	?	P	f	618.89	NA	7	56	2	24	c	j	619.9	1	100	1000	0	0
223	1	12	?	N	d	703.41	NA	3	56	7	24	i	n	653.27	1	100	1000	0	0
223	1	13	?	N	d	419.12	NA	7	24	2	56	i	j	603.19	1	1000	1000	0	0
223	1	14	?	P	f	486.14	NA	3	24	7	56	c	n	803.26	1	100	100	0	0
223	1	15	?	N	d	369.65	NA	9	24	4	56	i	j	703.27	1	100	100	0	0
223	1	16	?	P	f	402.86	NA	9	24	2	56	i	j	553.44	0	1000	1000	0	0
223	1	17	?	N	d	352.65	NA	8	56	4	24	c	j	469.63	1	100	1000	0	1
223	1	18	?	P	f	301.32	NA	3	56	8	24	i	n	569.78	0	100	100	0	0
223	1	19	?	N	d	652.7	NA	7	56	4	24	c	j	803.79	1	1000	1000	0	1
223	1	20	?	P	f	352.39	NA	9	24	2	56	i	j	603.71	0	1000	100	0	0
223	1	21	?	N	d	18.31	NA	8	56	4	24	c	n	569.7	0	1000	1000	0	1
223	1	22	?	N	d	419.82	NA	3	56	7	24	i	n	1787.93	1	1000	1000	0	1
223	1	23	?	P	f	2255.01	NA	2	56	7	24	i	n	670.38	0	100	1000	0	0
223	1	24	?	P	f	553.06	NA	7	56	4	24	c	j	551.68	1	1000	100	0	1
223	1	25	?	N	d	836.55	NA	8	56	3	24	c	j	619.24	1	100	100	0	0
223	1	26	?	P	f	903.74	NA	2	56	9	24	i	n	634.34	0	100	100	0	0
223	1	27	?	N	d	586.26	NA	8	56	4	24	c	j	1003.83	1	100	100	0	1
223	1	28	?	P	f	386.05	NA	7	24	2	56	i	j	819.48	0	1000	100	0	0
223	1	29	?	N	d	469.01	NA	4	24	9	56	c	n	803.62	1	100	1000	0	1
223	1	30	?	P	f	552.82	NA	7	56	2	24	c	j	786.73	1	100	1000	0	0
223	1	31	?	N	d	602.66	NA	4	56	8	24	i	n	1034.69	1	100	100	0	0
223	1	32	?	N	d	435.4	NA	8	24	2	56	i	j	1120.15	1	1000	100	0	0
223	1	33	?	P	f	536.62	NA	3	24	8	56	c	n	553.15	1	1000	1000	0	0
223	1	34	?	P	f	886.4	NA	4	24	7	56	c	n	903.33	1	1000	1000	0	0
223	1	35	?	N	d	319.48	NA	3	56	8	24	i	n	602.81	1	1000	100	0	0
223	1	36	?	P	f	352.63	NA	4	24	9	56	c	n	670.37	1	1000	100	0	0
223	1	37	?	N	d	319.42	NA	2	24	9	56	c	n	418.81	1	1000	1000	0	0
223	1	38	?	P	f	4839.21	NA	4	24	8	56	c	n	603.56	1	100	100	0	0
223	1	39	?	N	d	1437.4	NA	3	24	8	56	c	n	519.94	1	1000	100	0	0
223	1	40	?	P	f	436.13	NA	4	56	8	24	i	n	736.57	0	1000	1000	0	0
223	1	41	?	P	f	2204.83	NA	8	24	2	56	i	j	702.84	0	100	1000	0	1
223	1	42	?	N	d	1587.36	NA	4	56	9	24	i	n	686.95	1	100	100	0	1
223	1	43	?	N	d	619.17	NA	9	24	3	56	i	j	636.73	1	100	100	0	0
223	1	44	?	N	d	569.66	NA	4	24	7	56	c	n	536.07	1	100	1000	0	0
223	1	45	?	P	f	519.61	NA	9	24	2	56	i	j	536.39	0	100	100	0	0
223	1	46	?	P	f	418.87	NA	3	56	8	24	i	n	485.98	0	1000	100	0	1
223	1	47	?	N	d	584.62	NA	2	56	7	24	i	n	569.52	1	100	100	0	1
223	1	48	?	P	f	486.24	NA	3	56	9	24	i	n	720.03	0	100	1000	0	0
223	1	49	?	P	f	1020.4	NA	7	24	2	56	i	j	653.02	0	100	1000	0	1
223	1	50	?	N	d	435.9	NA	7	56	4	24	c	j	553.44	1	1000	1000	0	1
223	1	51	?	P	f	402.82	NA	2	24	7	56	c	n	520.23	1	1000	1000	0	0
223	1	52	?	N	d	336.17	NA	7	56	4	24	c	j	669.87	1	1000	100	0	0
223	1	53	?	P	f	703.1	NA	9	24	3	56	i	j	869.9	0	1000	1000	0	0
223	1	54	?	N	d	869.96	NA	7	56	4	24	c	j	619.92	1	100	100	0	1
223	1	55	?	P	f	486.16	NA	7	56	3	24	c	j	503.14	1	1000	100	0	0
223	1	56	?	N	d	552.71	NA	2	24	9	56	c	n	536.94	1	1000	100	0	0
223	1	57	?	N	d	1070.2	NA	4	24	8	56	c	n	485.68	1	100	100	0	0
223	1	58	?	N	d	585.6	NA	8	24	2	56	i	j	936.48	1	1000	100	0	0
223	1	59	?	P	f	936.91	NA	3	56	9	24	i	n	586.38	0	100	1000	0	0
223	1	60	?	N	d	886.62	NA	8	56	2	24	c	j	618.2	1	1000	100	0	1
223	1	61	?	P	f	2288.15	NA	3	24	8	56	c	n	503.0	1	1000	100	0	0
223	1	62	?	N	d	636.09	NA	9	24	2	56	i	j	586.49	1	1000	1000	0	0
223	1	63	?	P	f	720.01	NA	7	24	3	56	i	j	536.56	0	1000	100	0	0
223	1	64	?	P	f	486.02	NA	8	24	4	56	i	j	503.93	0	1000	1000	0	1
223	1	65	?	P	f	970.07	NA	9	56	2	24	c	j	403.19	1	100	1000	0	1
223	2	1	?	N	d	3456.18	NA	2	24	8	56	c	n	486.54	1	1000	1000	-1	0
223	2	2	?	P	f	536.18	NA	8	56	4	24	c	j	486.36	1	100	1000	0	0
223	2	3	?	P	f	635.87	NA	3	24	8	56	c	n	501.07	1	100	100	0	0
223	2	4	?	N	d	419.06	NA	2	24	8	56	c	n	452.43	1	1000	100	0	0
223	2	5	?	P	f	268.8	NA	3	24	8	56	c	n	403.48	1	1000	1000	0	0
223	2	6	?	N	d	235.89	NA	4	56	9	24	i	n	786.62	1	1000	100	0	0
223	2	7	?	N	d	502.96	NA	8	24	3	56	i	j	620.13	1	1000	1000	0	0
223	2	8	?	P	f	769.72	NA	8	24	4	56	i	j	636.65	0	100	1000	0	0
223	2	9	?	N	d	1403.53	NA	9	56	2	24	c	j	719.5	1	100	100	0	1
223	2	10	?	P	f	736.41	NA	7	24	3	56	i	j	686.91	0	100	100	0	0
223	2	11	?	P	f	752.17	NA	2	56	7	24	i	n	720.14	0	100	1000	0	1
223	2	12	?	N	d	486.09	NA	4	56	8	24	i	n	669.73	1	100	1000	0	1
223	2	13	?	N	d	684.59	NA	3	56	8	24	i	n	603.63	1	100	100	0	0
223	2	14	?	N	d	886.38	NA	2	56	9	24	i	n	552.41	1	100	1000	0	0
223	2	15	?	P	f	502.98	NA	8	56	3	24	c	j	519.11	1	1000	100	0	0
223	2	16	?	P	f	336.98	NA	8	24	4	56	i	j	836.54	0	1000	1000	0	0
223	2	17	?	P	f	669.94	NA	3	56	8	24	i	n	720.21	0	100	100	0	1
223	2	18	?	P	f	502.29	NA	7	56	4	24	c	j	987.46	1	1000	1000	0	1
223	2	19	?	N	d	920.02	NA	7	24	3	56	i	j	737.37	1	100	100	0	0
223	2	20	?	N	d	869.66	NA	9	56	2	24	c	j	469.67	1	100	1000	0	0
223	2	21	?	P	f	402.65	NA	3	56	9	24	i	n	786.55	0	1000	100	0	0
223	2	22	?	P	f	802.79	NA	2	56	8	24	i	n	736.63	0	100	100	0	1
223	2	23	?	P	f	452.53	NA	4	56	7	24	i	n	600.93	0	1000	100	0	1
223	2	24	?	N	d	653.31	NA	8	24	2	56	i	j	586.29	1	100	1000	0	1
223	2	25	?	N	d	2856.14	NA	4	24	7	56	c	n	519.49	1	100	1000	0	0
223	2	26	?	P	f	502.65	NA	2	56	9	24	i	n	535.65	0	1000	1000	0	0
223	2	27	?	N	d	837.68	NA	8	56	3	24	c	j	634.25	1	100	100	0	1
223	2	28	?	P	f	552.89	NA	8	56	2	24	c	j	452.62	1	1000	100	0	0
223	2	29	?	P	f	536.45	NA	4	56	8	24	i	n	586.0	0	1000	100	0	0
223	2	30	?	N	d	452.73	NA	7	56	2	24	c	j	535.95	1	100	1000	0	1
223	2	31	?	P	f	869.55	NA	4	24	7	56	c	n	436.76	1	100	100	0	0
223	2	32	?	P	f	2003.84	NA	7	56	2	24	c	j	519.06	1	1000	1000	0	0
223	2	33	?	P	f	603.44	NA	3	56	8	24	i	j	302.54	1	1000	1000	0	0
223	2	34	?	N	d	1437.1	NA	2	56	7	24	i	n	468.98	1	100	100	0	0
223	2	35	?	P	f	719.6	NA	4	24	8	56	c	n	402.98	1	100	1000	0	0
223	2	36	?	P	f	485.92	NA	8	24	2	56	i	j	518.86	0	1000	1000	0	0
223	2	37	?	N	d	836.07	NA	8	24	4	56	i	j	786.41	1	100	100	0	1
223	2	38	?	P	f	502.96	NA	2	56	8	24	i	n	654.02	0	1000	100	0	0
223	2	39	?	N	d	636.41	NA	9	56	3	24	c	j	769.67	1	1000	1000	0	1
223	2	40	?	P	f	369.46	NA	4	24	8	56	c	n	502.88	1	1000	100	0	0
223	2	41	?	N	d	502.88	NA	8	56	2	24	c	j	619.1	1	1000	100	0	0
223	2	42	?	P	f	786.5	NA	9	24	3	56	i	j	886.47	0	100	1000	0	0
223	2	43	?	N	d	686.48	NA	9	56	2	24	c	j	503.14	1	100	1000	0	1
223	2	44	?	P	f	619.75	NA	8	56	3	24	c	j	536.44	1	100	100	0	0
223	2	45	?	P	f	887.02	NA	2	56	7	24	i	n	686.46	0	100	1000	0	0
223	2	46	?	N	d	402.45	NA	4	24	7	56	c	n	553.35	1	1000	1000	0	1
223	2	47	?	P	f	1087.01	NA	2	56	8	24	i	n	570.92	0	100	1000	0	0
223	2	48	?	N	d	319.42	NA	9	24	4	56	i	j	586.28	1	1000	1000	0	1
223	2	49	?	P	f	319.24	NA	9	24	3	56	i	j	620.0	0	1000	100	0	0
223	2	50	?	P	f	652.81	NA	7	24	4	56	i	j	719.19	0	1000	1000	0	1
223	2	51	?	N	d	1287.06	NA	2	24	9	56	c	n	787.38	1	100	100	0	1
223	2	52	?	P	f	702.66	NA	3	24	7	56	c	n	519.44	1	100	1000	0	0
223	2	53	?	P	f	369.25	NA	7	24	2	56	i	j	669.99	0	1000	100	0	0
223	2	54	?	P	f	502.95	NA	9	24	4	56	i	j	1019.72	0	1000	100	0	1
223	2	55	?	N	d	736.07	NA	3	24	9	56	c	n	386.2	1	1000	1000	0	1
223	2	56	?	P	f	1420.09	NA	2	24	7	56	c	n	586.56	1	100	100	0	0
223	2	57	?	P	f	903.25	NA	8	24	4	56	i	j	735.55	0	100	100	0	0
223	2	58	?	N	d	569.42	NA	7	56	2	24	c	j	652.77	1	100	100	0	1
223	2	59	?	N	d	703.31	NA	9	56	3	24	c	j	719.94	1	1000	100	0	0
223	2	60	?	P	f	469.53	NA	4	24	9	56	c	n	402.54	1	100	1000	0	0
223	2	61	?	P	f	518.9	NA	2	24	9	56	c	n	569.89	1	1000	1000	0	0
223	2	62	?	P	f	653.13	NA	7	56	3	24	c	j	619.44	1	1000	1000	0	0
223	2	63	?	N	d	402.79	NA	4	24	7	56	c	n	703.07	1	1000	100	0	0
223	2	64	?	P	f	602.96	NA	7	24	3	56	i	j	686.54	0	1000	1000	0	0
223	2	65	?	N	d	353.16	NA	2	24	8	56	c	n	469.22	1	1000	100	0	1
223	3	1	?	P	f	553.52	NA	3	24	9	56	c	n	585.99	1	1000	100	-1	0
223	3	2	?	N	d	803.23	NA	8	56	4	24	c	j	502.52	1	100	1000	0	0
223	3	3	?	P	f	736.58	NA	9	24	2	56	i	j	720.72	0	100	100	0	0
223	3	4	?	N	d	569.41	NA	4	24	8	56	c	n	453.04	1	100	1000	0	1
223	3	5	?	P	f	369.16	NA	7	56	2	24	c	j	517.3	1	1000	100	0	0
223	3	6	?	N	d	769.91	NA	3	56	9	24	i	n	652.68	1	100	100	0	0
223	3	7	?	P	f	252.54	NA	7	56	4	24	c	j	452.83	1	1000	1000	0	0
223	3	8	?	N	d	602.55	NA	3	24	9	56	c	n	569.67	1	100	100	0	0
223	3	9	?	P	f	536.01	NA	2	56	8	24	i	j	385.86	1	100	1000	0	0
223	3	10	?	N	d	970.18	NA	9	56	3	24	c	j	702.92	1	100	100	0	0
223	3	11	?	P	f	467.44	NA	4	24	8	56	c	n	519.94	1	1000	100	0	0
223	3	12	?	P	f	986.8	NA	2	56	7	24	i	n	819.86	0	100	1000	0	0
223	3	13	?	N	d	369.4	NA	9	24	3	56	i	j	787.02	1	100	1000	0	1
223	3	14	?	N	d	469.52	NA	4	24	8	56	c	n	603.0	1	100	1000	0	0
223	3	15	?	N	d	569.57	NA	7	56	2	24	c	j	603.97	1	100	100	0	0
223	3	16	?	P	f	385.6	NA	4	24	7	56	c	n	418.94	1	1000	1000	0	0
223	3	17	?	P	f	335.75	NA	2	56	9	24	i	n	586.67	0	1000	1000	0	0
223	3	18	?	P	f	1036.44	NA	8	56	4	24	c	j	719.48	1	100	1000	0	1
223	3	19	?	N	d	653.38	NA	2	56	8	24	i	n	586.48	1	1000	100	0	0
223	3	20	?	N	d	302.84	NA	3	56	8	24	i	n	653.4	1	1000	100	0	0
223	3	21	?	N	d	619.78	NA	7	24	4	56	i	j	987.37	1	1000	1000	0	0
223	3	22	?	P	f	702.83	NA	3	56	9	24	i	n	567.84	0	1000	100	0	0
223	3	23	?	N	d	619.45	NA	4	24	9	56	c	n	886.47	1	1000	1000	0	1
223	3	24	?	P	f	1754.33	NA	2	24	9	56	c	n	652.86	1	100	1000	0	0
223	3	25	?	P	f	1036.7	NA	3	24	8	56	c	n	486.93	1	100	100	0	0
223	3	26	?	P	f	602.52	NA	8	56	4	24	c	j	853.48	1	1000	1000	0	0
223	3	27	?	P	f	1620.28	NA	9	56	2	24	c	j	652.61	1	1000	100	0	0
223	3	28	?	N	d	2822.14	NA	4	56	7	24	i	n	1137.32	1	100	1000	0	0
223	3	29	?	P	f	1353.82	NA	7	24	2	56	i	n	803.15	1	100	1000	0	0
223	3	30	?	P	f	919.56	NA	4	24	9	56	c	n	569.94	1	100	100	0	0
223	3	31	?	N	d	419.45	NA	7	24	2	56	i	j	753.2	1	1000	100	0	0
223	3	32	?	N	d	669.99	NA	4	56	8	24	i	n	737.31	1	1000	1000	0	0
223	3	33	?	P	f	1237.11	NA	3	56	7	24	i	n	636.28	0	100	100	0	0
223	3	34	?	P	f	486.19	NA	2	56	7	24	i	n	602.08	0	1000	100	0	1
223	3	35	?	P	f	2054.41	NA	4	56	9	24	i	n	619.56	0	100	100	0	1
223	3	36	?	P	f	636.53	NA	2	24	7	56	c	n	987.49	1	1000	100	0	1
223	3	37	?	N	d	268.89	NA	4	24	8	56	c	n	619.28	1	1000	1000	0	0
223	3	38	?	N	d	369.22	NA	3	56	8	24	i	n	720.08	1	1000	100	0	0
223	3	39	?	N	d	419.28	NA	4	56	9	24	i	n	1120.38	1	1000	100	0	0
223	3	40	?	N	d	1770.9	NA	2	56	9	24	i	n	1020.24	1	100	100	0	0
223	3	41	?	N	d	2237.61	NA	3	24	7	56	c	n	653.15	1	100	100	0	0
223	3	42	?	P	f	369.73	NA	2	56	8	24	i	n	536.68	0	1000	1000	0	0
223	3	43	?	N	d	352.91	NA	8	56	3	24	c	j	502.89	1	1000	1000	0	1
223	3	44	?	P	f	1370.64	NA	4	56	7	24	i	n	820.08	0	100	100	0	0
223	3	45	?	N	d	536.34	NA	9	56	3	24	c	j	536.03	1	1000	1000	0	1
223	3	46	?	P	f	1537.36	NA	8	24	4	56	i	j	869.79	0	100	1000	0	0
223	3	47	?	N	d	1370.67	NA	8	56	2	24	c	j	586.94	1	100	1000	0	1
223	3	48	?	P	f	886.9	NA	7	56	4	24	c	j	753.27	1	100	100	0	0
223	3	49	?	N	d	803.16	NA	2	24	7	56	c	n	734.71	1	1000	100	0	0
223	3	50	?	P	f	1003.75	NA	3	56	7	24	i	n	603.58	0	100	1000	0	0
223	3	51	?	N	d	702.35	NA	8	24	2	56	i	j	586.31	1	1000	1000	0	1
223	3	52	?	P	f	469.45	NA	3	24	8	56	c	n	619.46	1	1000	100	0	0
223	3	53	?	P	f	1704.18	NA	2	24	8	56	c	n	486.17	1	1000	1000	0	0
223	3	54	?	N	d	636.26	NA	4	56	7	24	i	n	1420.82	1	1000	1000	0	0
223	3	55	?	P	f	2304.8	NA	9	56	2	24	c	j	570.35	1	1000	100	0	0
223	3	56	?	N	d	802.94	NA	3	56	9	24	i	n	1120.76	1	1000	1000	0	0
223	3	57	?	P	f	970.03	NA	7	56	2	24	c	j	770.28	1	100	1000	0	0
223	3	58	?	P	f	386.05	NA	7	24	4	56	i	n	503.33	1	1000	1000	0	0
223	3	59	?	N	d	519.54	NA	9	56	2	24	c	j	602.76	1	1000	100	0	0
223	3	60	?	P	f	903.36	NA	9	24	3	56	i	j	1137.69	0	100	1000	0	0
223	3	61	?	N	d	1186.98	NA	4	24	7	56	c	n	669.81	1	100	1000	0	1
223	3	62	?	P	f	485.57	NA	2	56	8	24	i	n	636.99	0	1000	100	0	0
223	3	63	?	N	d	1353.75	NA	9	24	4	56	i	j	701.02	1	100	100	0	1
223	3	64	?	P	f	1237.08	NA	8	24	2	56	i	j	953.43	0	100	100	0	0
223	3	65	?	N	d	418.68	NA	8	56	4	24	c	j	770.47	1	100	100	0	1
223	4	1	?	P	f	686.64	NA	8	56	4	24	c	j	503.27	1	100	1000	-1	0
223	4	2	?	N	d	269.39	NA	8	24	2	56	i	j	719.99	1	1000	100	0	0
223	4	3	?	P	f	252.76	NA	9	24	4	56	i	j	753.45	0	1000	1000	0	0
223	4	4	?	N	d	603.04	NA	7	56	3	24	c	j	502.92	1	100	1000	0	1
223	4	5	?	P	f	969.76	NA	2	24	9	56	c	n	486.16	1	100	1000	0	0
223	4	6	?	P	f	602.93	NA	7	56	3	24	c	j	486.0	1	100	100	0	0
223	4	7	?	N	d	402.78	NA	7	24	4	56	i	j	686.66	1	100	1000	0	0
223	4	8	?	P	f	570.05	NA	8	56	3	24	c	j	436.05	1	100	1000	0	0
223	4	9	?	N	d	553.23	NA	8	56	2	24	c	j	486.78	1	100	100	0	0
223	4	10	?	P	f	436.82	NA	3	56	7	24	i	n	650.81	0	100	1000	0	0
223	4	11	?	P	f	319.07	NA	2	56	9	24	i	n	802.97	0	1000	1000	0	1
223	4	12	?	P	f	1220.15	NA	4	56	7	24	i	n	601.29	0	100	100	0	1
223	4	13	?	N	d	602.48	NA	2	24	7	56	c	n	603.45	1	100	100	0	1
223	4	14	?	N	d	302.38	NA	3	56	9	24	i	n	669.08	1	1000	1000	0	0
223	4	15	?	P	f	469.71	NA	7	56	2	24	c	j	703.82	1	1000	100	0	0
223	4	16	?	P	f	601.41	NA	4	56	9	24	i	n	636.7	0	1000	100	0	0
223	4	17	?	P	f	703.2	NA	9	24	2	56	i	j	536.17	0	100	1000	0	1
223	4	18	?	P	f	1536.69	NA	7	24	3	56	i	j	553.26	0	100	1000	0	1
223	4	19	?	N	d	319.2	NA	8	56	2	24	c	j	1270.88	1	1000	100	0	1
223	4	20	?	P	f	1821.15	NA	8	24	4	56	i	j	670.44	0	1000	100	0	0
223	4	21	?	N	d	886.72	NA	2	56	8	24	i	n	535.57	1	100	1000	0	1
223	4	22	?	P	f	1003.4	NA	4	24	7	56	c	n	736.06	1	1000	1000	0	0
223	4	23	?	N	d	369.13	NA	3	24	8	56	c	n	520.05	1	1000	100	0	0
223	4	24	?	P	f	1353.82	NA	8	24	2	56	i	j	653.28	0	100	100	0	0
223	4	25	?	P	f	1186.98	NA	9	56	3	24	c	j	502.79	1	100	1000	0	1
223	4	26	?	N	d	969.29	NA	8	56	2	24	c	j	500.7	1	1000	100	0	0
223	4	27	?	N	d	835.96	NA	4	24	9	56	c	n	502.36	1	100	100	0	0
223	4	28	?	P	f	603.11	NA	2	24	8	56	c	n	435.48	1	100	100	0	0
223	4	29	?	P	f	319.39	NA	8	56	4	24	c	j	636.65	1	1000	100	0	0
223	4	30	?	N	d	436.19	NA	7	56	2	24	c	j	419.33	1	1000	1000	0	0
223	4	31	?	P	f	802.77	NA	4	24	8	56	c	n	536.37	1	100	1000	0	0
223	4	32	?	N	d	102.47	NA	2	56	7	24	i	n	686.01	1	1000	100	0	0
223	4	33	?	P	f	653.11	NA	4	56	8	24	i	n	770.44	0	100	100	0	0
223	4	34	?	N	d	235.66	NA	2	24	7	56	c	n	536.52	1	1000	1000	0	1
223	4	35	?	N	d	719.82	NA	7	56	3	24	c	j	569.34	1	100	100	0	0
223	4	36	?	P	f	485.15	NA	8	56	4	24	c	j	536.07	1	100	100	0	0
223	4	37	?	P	f	1053.42	NA	2	56	7	24	i	n	519.19	0	1000	1000	0	0
223	4	38	?	N	d	352.39	NA	9	56	4	24	c	j	736.44	1	1000	1000	0	1
223	4	39	?	P	f	935.92	NA	2	24	9	56	c	j	619.3	0	100	100	0	0
223	4	40	?	P	f	503.08	NA	7	24	3	56	i	j	653.7	0	1000	100	0	1
223	4	41	?	N	d	352.66	NA	4	24	9	56	c	n	585.97	1	1000	100	0	1
223	4	42	?	P	f	619.74	NA	7	24	2	56	i	j	819.84	0	1000	100	0	0
223	4	43	?	N	d	535.98	NA	9	24	3	56	i	n	702.3	0	1000	100	0	1
223	4	44	?	P	f	869.96	NA	8	24	2	56	i	j	636.29	0	100	1000	0	1
223	4	45	?	N	d	585.61	NA	7	24	3	56	i	j	870.22	1	100	1000	0	1
223	4	46	?	P	f	1269.69	NA	8	24	2	56	i	j	603.7	0	100	100	0	0
223	4	47	?	N	d	436.07	NA	8	56	3	24	c	j	670.49	1	1000	1000	0	1
223	4	48	?	P	f	836.78	NA	2	56	7	24	i	n	952.4	0	100	100	0	0
223	4	49	?	P	f	569.45	NA	4	56	8	24	i	n	636.06	0	1000	100	0	1
223	4	50	?	N	d	502.52	NA	3	24	9	56	c	n	953.4	1	100	1000	0	1
223	4	51	?	N	d	1520.84	NA	9	56	4	24	c	j	652.97	1	100	1000	0	0
223	4	52	?	P	f	769.32	NA	2	56	7	24	i	n	567.36	0	1000	1000	0	0
223	4	53	?	N	d	586.33	NA	4	24	8	56	c	n	519.74	1	1000	100	0	1
223	4	54	?	P	f	536.26	NA	3	24	8	56	c	n	435.44	1	1000	1000	0	0
223	4	55	?	N	d	1787.81	NA	9	24	2	56	i	j	619.43	1	100	100	0	0
223	4	56	?	N	d	1253.82	NA	3	56	9	24	i	n	570.06	1	100	100	0	0
223	4	57	?	P	f	319.36	NA	4	24	7	56	c	n	636.67	1	1000	1000	0	0
223	4	58	?	N	d	2455.13	NA	3	56	8	24	i	n	553.43	1	100	100	0	0
223	4	59	?	P	f	3689.64	NA	4	24	7	56	c	n	686.98	1	100	1000	0	0
223	4	60	?	P	f	634.42	NA	3	24	8	56	c	n	570.42	1	1000	100	0	0
223	4	61	?	P	f	1270.11	NA	8	24	4	56	i	n	419.36	1	1000	1000	0	0
223	4	62	?	N	d	402.74	NA	7	56	2	24	c	j	502.63	1	1000	1000	0	0
223	4	63	?	P	f	469.39	NA	3	56	8	24	i	n	519.78	0	1000	1000	0	0
223	4	64	?	N	d	820.08	NA	4	56	9	24	i	n	553.31	1	1000	1000	0	1
223	4	65	?	P	f	1271.67	NA	2	56	7	24	i	n	636.52	0	100	1000	0	0
223	5	1	?	P	f	3339.42	NA	7	56	4	24	c	j	470.41	1	100	1000	-1	0
223	5	2	?	N	d	519.6	NA	8	56	3	24	c	j	501.12	1	100	100	0	0
223	5	3	?	N	d	485.61	NA	7	56	2	24	c	j	469.36	1	1000	1000	0	0
223	5	4	?	P	f	569.48	NA	3	24	8	56	c	n	402.91	1	100	1000	0	0
223	5	5	?	P	f	703.32	NA	4	56	7	24	i	n	602.73	0	100	100	0	0
223	5	6	?	P	f	586.44	NA	9	24	2	56	i	j	617.86	0	1000	1000	0	1
223	5	7	?	N	d	503.93	NA	8	24	3	56	i	j	520.45	1	100	100	0	1
223	5	8	?	P	f	470.9	NA	4	24	7	56	c	n	553.6	1	100	100	0	0
223	5	9	?	N	d	402.7	NA	2	24	9	56	c	n	486.16	1	1000	100	0	0
223	5	10	?	P	f	453.41	NA	3	24	9	56	c	n	420.13	1	100	100	0	0
223	5	11	?	N	d	569.61	NA	9	56	2	24	c	j	503.32	1	100	100	0	0
223	5	12	?	P	f	286.16	NA	3	56	8	24	i	n	486.51	0	1000	1000	0	0
223	5	13	?	N	d	836.51	NA	9	24	4	56	i	j	602.9	1	100	1000	0	1
223	5	14	?	P	f	602.95	NA	7	56	2	24	c	j	435.68	1	100	1000	0	0
223	5	15	?	N	d	352.52	NA	8	56	3	24	c	j	467.64	1	1000	1000	0	0
223	5	16	?	P	f	1670.79	NA	7	24	2	56	i	j	585.65	0	100	100	0	0
223	5	17	?	N	d	586.18	NA	8	56	4	24	c	j	535.99	1	100	100	0	1
223	5	18	?	P	f	436.23	NA	3	24	9	56	c	n	535.79	1	100	1000	0	0
223	5	19	?	N	d	370.17	NA	9	24	2	56	i	j	535.65	1	1000	100	0	0
223	5	20	?	P	f	435.68	NA	7	56	3	24	c	j	486.02	1	1000	100	0	0
223	5	21	?	N	d	302.36	NA	7	24	4	56	i	j	602.49	1	1000	100	0	0
223	5	22	?	P	f	302.54	NA	3	24	7	56	c	n	636.82	1	1000	100	0	0
223	5	23	?	N	d	1487.33	NA	4	56	9	24	i	n	569.53	1	100	100	0	0
223	5	24	?	P	f	419.39	NA	9	56	2	24	c	j	520.08	1	1000	100	0	0
223	5	25	?	N	d	952.66	NA	9	56	4	24	c	j	453.26	1	100	1000	0	0
223	5	26	?	P	f	386.21	NA	8	24	3	56	i	j	536.94	0	1000	100	0	0
223	5	27	?	P	f	702.91	NA	7	56	4	24	c	j	419.47	1	100	1000	0	1
223	5	28	?	P	f	602.79	NA	7	56	3	24	c	j	536.14	1	1000	100	0	0
223	5	29	?	P	f	450.96	NA	2	56	7	24	i	n	553.43	0	1000	100	0	0
223	5	30	?	N	d	368.11	NA	7	56	4	24	c	j	619.43	1	100	100	0	1
223	5	31	?	N	d	452.54	NA	8	56	3	24	c	j	502.67	1	1000	1000	0	0
223	5	32	?	P	f	719.32	NA	4	56	8	24	i	n	586.3	0	1000	1000	0	0
223	5	33	?	P	f	469.46	NA	2	24	7	56	c	n	536.62	1	1000	1000	0	1
223	5	34	?	N	d	2605.12	NA	3	24	7	56	c	n	452.04	1	100	1000	0	0
223	5	35	?	P	f	984.69	NA	4	56	9	24	i	n	569.47	0	1000	1000	0	0
223	5	36	?	N	d	1704.21	NA	9	24	2	56	i	j	536.04	1	100	1000	0	1
223	5	37	?	P	f	1704.04	NA	4	24	9	56	c	n	669.19	1	100	1000	0	0
223	5	38	?	N	d	817.8	NA	2	24	9	56	c	n	519.46	1	1000	100	0	0
223	5	39	?	P	f	886.75	NA	9	24	3	56	i	j	568.19	0	100	100	0	0
223	5	40	?	N	d	402.77	NA	2	56	9	24	i	n	469.38	1	1000	100	0	1
223	5	41	?	P	f	419.44	NA	7	24	4	56	i	j	552.84	0	100	100	0	0
223	5	42	?	N	d	436.2	NA	3	24	7	56	c	n	569.89	1	100	100	0	1
223	5	43	?	P	f	568.56	NA	7	56	2	24	c	j	667.26	1	1000	1000	0	0
223	5	44	?	N	d	368.72	NA	7	24	3	56	i	j	569.34	1	1000	100	0	0
223	5	45	?	N	d	1120.04	NA	2	56	8	24	i	n	569.66	1	100	1000	0	0
223	5	46	?	P	f	603.44	NA	9	24	3	56	i	j	870.14	0	100	1000	0	0
223	5	47	?	P	f	352.51	NA	4	56	8	24	i	n	552.81	0	1000	1000	0	1
223	5	48	?	N	d	452.52	NA	2	56	8	24	i	n	536.5	1	1000	100	0	1
223	5	49	?	P	f	502.73	NA	7	24	3	56	i	j	603.35	0	1000	100	0	0
223	5	50	?	N	d	436.1	NA	2	56	7	24	i	n	536.58	1	1000	1000	0	1
223	5	51	?	P	f	619.83	NA	4	56	9	24	i	n	569.53	0	100	1000	0	0
223	5	52	?	N	d	1002.61	NA	2	24	9	56	c	n	486.05	1	1000	1000	0	1
223	5	53	?	P	f	936.99	NA	4	56	8	24	i	n	769.81	0	100	100	0	0
223	5	54	?	N	d	517.61	NA	9	24	2	56	i	j	486.04	1	100	100	0	1
223	5	55	?	P	f	502.65	NA	3	24	9	56	c	n	469.64	1	1000	1000	0	0
223	5	56	?	N	d	502.58	NA	4	24	8	56	c	n	469.21	1	1000	1000	0	0
223	5	57	?	P	f	1018.46	NA	7	56	3	24	c	j	603.17	1	100	1000	0	0
223	5	58	?	N	d	335.86	NA	9	56	4	24	c	j	886.96	1	1000	100	0	0
223	5	59	?	P	f	586.3	NA	7	24	3	56	i	j	703.06	0	1000	1000	0	0
223	5	60	?	N	d	602.98	NA	7	24	4	56	i	j	1020.33	1	100	1000	0	1
223	5	61	?	P	f	1087.0	NA	9	24	2	56	i	j	619.18	0	1000	1000	0	0
223	5	62	?	N	d	2004.71	NA	4	24	7	56	c	n	1036.34	1	1000	100	0	1
223	5	63	?	P	f	636.3	NA	2	24	8	56	c	n	986.55	1	100	100	0	0
223	5	64	?	P	f	769.83	NA	9	24	4	56	i	j	836.52	0	100	1000	0	0
223	5	65	?	N	d	502.7	NA	3	56	9	24	i	j	402.12	0	100	1000	0	1
223	6	1	?	P	f	2304.8	NA	3	24	9	56	c	n	452.85	1	100	1000	-1	0
223	6	2	?	N	d	703.12	NA	7	24	2	56	i	j	534.77	1	100	100	0	0
223	6	3	?	P	f	570.0	NA	8	56	3	24	c	j	520.5	1	100	100	0	0
223	6	4	?	N	d	435.77	NA	2	56	8	24	i	n	420.33	1	1000	100	0	0
223	6	5	?	P	f	235.86	NA	3	56	8	24	i	n	435.78	0	1000	100	0	0
223	6	6	?	N	d	736.44	NA	8	24	4	56	i	j	503.12	1	100	100	0	1
223	6	7	?	P	f	336.3	NA	9	56	2	24	c	j	419.96	1	1000	100	0	0
223	6	8	?	N	d	586.42	NA	7	24	3	56	i	j	536.12	1	100	1000	0	0
223	6	9	?	P	f	369.34	NA	2	56	9	24	i	n	452.04	0	1000	100	0	0
223	6	10	?	N	d	719.51	NA	4	24	9	56	c	n	419.17	1	100	1000	0	1
223	6	11	?	P	f	686.23	NA	3	24	9	56	c	n	387.0	1	100	1000	0	0
223	6	12	?	P	f	502.79	NA	4	24	9	56	c	n	469.5	1	1000	100	0	0
223	6	13	?	N	d	652.61	NA	3	56	8	24	i	n	552.85	1	1000	100	0	0
223	6	14	?	P	f	601.15	NA	4	24	8	56	c	n	386.41	1	100	1000	0	0
223	6	15	?	N	d	484.58	NA	9	24	2	56	i	j	485.5	1	1000	100	0	0
223	6	16	?	P	f	436.04	NA	4	24	8	56	c	n	403.05	1	100	100	0	0
223	6	17	?	N	d	552.79	NA	3	56	7	24	i	n	569.57	1	100	100	0	0
223	6	18	?	P	f	419.13	NA	7	56	2	24	c	j	403.34	1	100	100	0	0
223	6	19	?	P	f	617.9	NA	3	24	8	56	c	n	519.78	1	100	1000	0	0
223	6	20	?	N	d	436.24	NA	4	56	8	24	i	n	584.22	1	100	1000	0	0
223	6	21	?	P	f	569.48	NA	7	56	3	24	c	j	519.22	1	1000	100	0	0
223	6	22	?	P	f	386.31	NA	4	56	9	24	i	n	519.53	0	1000	1000	0	0
223	6	23	?	N	d	417.44	NA	7	56	2	24	c	j	786.88	1	1000	1000	0	1
223	6	24	?	P	f	1053.34	NA	4	24	8	56	c	n	603.09	1	1000	1000	0	0
223	6	25	?	N	d	669.73	NA	8	24	3	56	i	j	586.29	1	1000	1000	0	0
223	6	26	?	N	d	518.85	NA	2	24	8	56	c	n	519.72	1	1000	100	0	0
223	6	27	?	P	f	636.41	NA	4	24	7	56	c	j	670.43	0	1000	100	0	0
223	6	28	?	N	d	1618.83	NA	3	56	8	24	i	n	587.59	1	100	1000	0	1
223	6	29	?	N	d	453.37	NA	9	56	2	24	c	j	486.31	1	1000	1000	0	0
223	6	30	?	P	f	720.24	NA	7	24	3	56	i	j	786.88	0	100	1000	0	0
223	6	31	?	P	f	402.72	NA	8	24	2	56	i	j	502.7	0	1000	1000	0	1
223	6	32	?	N	d	485.42	NA	7	24	4	56	i	j	536.5	1	100	1000	0	1
223	6	33	?	N	d	434.34	NA	9	24	2	56	i	j	552.81	1	1000	100	0	0
223	6	34	?	P	f	920.08	NA	3	24	7	56	c	n	786.72	1	100	100	0	0
223	6	35	?	P	f	569.21	NA	9	24	2	56	i	j	552.6	0	100	100	0	0
223	6	36	?	P	f	703.07	NA	4	24	8	56	c	n	753.54	1	1000	1000	0	1
223	6	37	?	N	d	703.05	NA	9	56	2	24	c	j	519.16	1	100	100	0	0
223	6	38	?	P	f	485.57	NA	4	56	9	24	i	n	536.84	0	100	100	0	0
223	6	39	?	N	d	502.78	NA	8	56	2	24	c	j	502.73	1	100	1000	0	1
223	6	40	?	P	f	502.88	NA	3	56	9	24	i	n	586.16	0	100	1000	0	0
223	6	41	?	N	d	2104.47	NA	9	56	2	24	c	j	485.33	1	1000	100	0	1
223	6	42	?	P	f	452.76	NA	8	56	4	24	c	j	503.36	1	100	1000	0	0
223	6	43	?	N	d	1286.9	NA	3	56	7	24	i	n	569.53	1	100	100	0	0
223	6	44	?	P	f	569.58	NA	8	24	4	56	i	j	1521.2	0	100	1000	0	0
223	6	45	?	N	d	1370.36	NA	7	24	2	56	i	j	885.85	1	1000	1000	0	1
223	6	46	?	P	f	385.2	NA	8	56	3	24	c	j	684.38	1	1000	100	0	0
223	6	47	?	N	d	719.62	NA	2	56	8	24	i	n	702.4	1	1000	1000	0	0
223	6	48	?	N	d	1103.69	NA	7	56	3	24	c	j	602.31	1	100	100	0	0
223	6	49	?	P	f	619.47	NA	9	24	4	56	i	j	536.32	0	1000	1000	0	0
223	6	50	?	P	f	486.36	NA	3	24	8	56	c	n	452.52	1	1000	100	0	1
223	6	51	?	N	d	368.86	NA	2	24	8	56	c	n	419.95	1	1000	1000	0	0
223	6	52	?	P	f	352.51	NA	9	56	3	24	c	j	433.98	1	1000	1000	0	0
223	6	53	?	N	d	920.18	NA	9	56	4	24	c	j	636.74	1	100	1000	0	0
223	6	54	?	P	f	3206.09	NA	7	56	3	24	c	j	469.58	1	100	1000	0	0
223	6	55	?	N	d	686.37	NA	2	24	9	56	c	n	753.39	1	1000	1000	0	0
223	6	56	?	P	f	2021.3	NA	3	24	8	56	c	n	987.26	1	100	100	0	0
223	6	57	?	N	d	1386.77	NA	2	56	7	24	i	n	569.39	1	100	100	0	0
223	6	58	?	P	f	670.02	NA	4	56	8	24	i	n	786.29	0	1000	1000	0	0
223	6	59	?	N	d	1754.23	NA	2	24	8	56	c	n	520.18	1	100	100	0	1
223	6	60	?	P	f	502.63	NA	3	56	8	24	i	n	586.46	0	100	100	0	0
223	6	61	?	N	d	252.49	NA	2	56	8	24	i	n	469.73	1	1000	1000	0	1
223	6	62	?	P	f	752.39	NA	9	56	4	24	c	j	453.54	1	1000	1000	0	0
223	6	63	?	N	d	686.47	NA	3	56	9	24	i	n	486.0	1	1000	100	0	0
223	6	64	?	P	f	452.72	NA	4	56	8	24	i	n	518.85	0	100	1000	0	0
223	6	65	?	N	d	369.46	NA	3	56	7	24	i	n	586.71	1	1000	100	0	1
