subj	block	trial	task_cue	task	choice_resp	choiceRT	choice_acc	topnum	topsize	botnum	botsize	cong	task_resp	taskRT	task_acc	RSI	CSI	altRep	E1
224	1	1	N	N	d	1307.03	0	2	56	9	24	i	n	4473.59	1	100	100	-1	0
224	1	2	N	N	d	2225.45	0	9	24	3	56	i	j	4485.17	1	100	1000	0	0
224	1	3	P	P	f	3485.78	1	7	24	2	56	i	n	1276.21	1	1000	1000	1	0
224	1	4	N	N	d	3086.49	0	9	56	3	24	c	n	4698.63	0	100	100	1	0
224	1	5	N	N	d	2481.53	0	4	56	7	24	i	n	5662.47	1	100	100	0	1
224	1	6	P	P	f	2442.48	1	3	24	9	56	c	n	3079.19	1	1000	1000	1	0
224	1	7	N	N	d	1850.44	0	9	24	2	56	i	n	2794.19	0	100	1000	1	0
224	1	8	P	P	f	3222.53	1	3	56	9	24	i	n	1432.6	0	100	100	1	1
224	1	9	N	N	d	1405.02	0	7	24	2	56	i	n	2198.08	0	1000	1000	1	1
224	1	10	N	N	d	1661.52	0	7	56	3	24	c	j	3982.97	1	1000	100	0	1
224	1	11	N	N	d	4688.34	0	4	24	9	56	c	n	3437.73	1	100	1000	0	0
224	1	12	P	P	f	2180.02	1	8	56	3	24	c	n	1013.3	0	100	1000	1	0
224	1	13	P	P	f	2503.8	1	9	56	2	24	c	n	2905.13	0	1000	1000	0	1
224	1	14	N	N	d	999.03	0	4	56	9	24	i	j	4222.72	0	1000	1000	1	1
224	1	15	P	P	f	1752.32	1	8	56	2	24	c	j	2616.08	1	1000	1000	1	1
224	1	16	P	P	f	5387.43	1	8	56	4	24	c	j	950.02	1	100	1000	0	0
224	1	17	P	P	f	1067.87	1	2	56	9	24	i	j	1998.01	1	1000	1000	0	0
224	1	18	P	P	f	2787.53	1	4	24	8	56	c	n	1588.37	1	100	1000	0	0
224	1	19	P	P	f	1607.78	1	3	24	7	56	c	n	3181.28	1	100	100	0	0
224	1	20	N	N	d	9761.08	0	8	56	2	24	c	j	1671.39	1	1000	1000	1	0
224	1	21	P	P	f	1877.33	1	4	24	9	56	c	n	1202.59	1	1000	100	1	0
224	1	22	P	P	f	1763.66	1	3	24	7	56	c	j	2802.78	0	1000	1000	0	0
224	1	23	N	N	d	3138.97	0	2	24	9	56	c	j	1083.48	0	1000	1000	1	1
224	1	24	P	P	f	2959.08	1	8	24	4	56	i	n	2381.86	1	100	100	1	1
224	1	25	N	N	d	2528.74	0	8	24	3	56	i	j	1304.68	1	100	100	1	0
224	1	26	P	P	f	1449.73	1	4	56	9	24	i	j	1624.66	1	1000	1000	1	0
224	1	27	P	P	f	1543.7	1	7	56	3	24	c	n	5107.53	0	100	100	0	0
224	1	28	P	P	f	1549.78	1	2	56	8	24	i	j	3076.56	1	1000	100	0	1
224	1	29	P	P	f	2836.77	1	4	24	7	56	c	n	1093.56	1	1000	100	0	0
224	1	30	N	N	d	1196.52	0	7	24	3	56	i	n	734.44	0	1000	100	1	0
224	1	31	N	N	d	1002.01	0	4	24	8	56	c	j	958.58	0	1000	1000	0	1
224	1	32	N	N	d	2994.79	0	9	24	3	56	i	j	1506.08	1	1000	1000	0	1
224	1	33	N	N	d	6187.61	0	4	24	7	56	c	j	1861.68	0	100	100	0	0
224	1	34	P	P	f	1176.25	1	8	56	2	24	c	j	2192.65	1	100	100	1	1
224	1	35	N	N	d	1229.53	0	8	56	4	24	c	n	2610.78	0	100	1000	1	0
224	1	36	N	N	d	1242.52	0	8	56	3	24	c	j	1044.35	1	100	100	0	1
224	1	37	N	N	d	1220.13	0	4	56	8	24	i	j	2613.26	0	1000	1000	0	0
224	1	38	N	N	d	895.32	0	8	24	3	56	i	n	979.94	0	100	100	0	1
224	1	39	N	N	d	841.36	0	4	56	9	24	i	n	1323.9	1	100	1000	0	1
224	1	40	N	N	d	1070.92	0	8	56	3	24	c	j	5348.78	1	100	1000	0	0
224	1	41	N	N	d	1208.74	0	9	56	2	24	c	n	1155.47	0	1000	1000	0	0
224	1	42	P	P	f	1193.46	1	7	24	3	56	i	n	2034.31	1	100	1000	1	1
224	1	43	P	P	f	1991.32	1	8	24	4	56	i	j	1559.17	0	1000	1000	0	0
224	1	44	N	N	d	4232.99	0	8	56	2	24	c	j	1948.6	1	1000	100	1	1
224	1	45	P	P	f	2428.3	1	4	24	9	56	c	n	1000.56	1	100	100	1	0
224	1	46	P	P	f	1553.45	1	2	56	7	24	i	j	904.14	1	100	100	0	0
224	1	47	N	N	d	1730.7	0	4	24	8	56	c	n	1038.11	1	1000	100	1	0
224	1	48	N	N	d	943.6	0	2	56	9	24	i	j	967.72	0	1000	100	0	0
224	1	49	P	P	f	1024.68	1	7	56	3	24	c	j	1088.73	1	1000	100	1	1
224	1	50	P	P	f	943.77	1	7	56	2	24	c	n	1091.8	0	1000	100	0	0
224	1	51	P	P	f	970.71	1	7	24	3	56	i	j	1016.87	0	100	1000	0	1
224	1	52	N	N	d	855.01	0	2	56	9	24	i	n	760.14	1	100	100	1	1
224	1	53	N	N	d	791.9	0	8	24	3	56	i	n	786.26	0	1000	100	0	0
224	1	54	P	P	f	1527.6	1	7	24	4	56	i	n	2137.14	1	1000	100	1	1
224	1	55	P	P	f	3023.59	1	8	24	3	56	i	j	3752.25	0	1000	100	0	0
224	1	56	N	N	d	1584.94	0	2	56	9	24	i	j	1840.37	0	100	1000	1	1
224	1	57	N	N	d	1575.67	0	4	24	8	56	c	j	2708.74	0	1000	100	0	1
224	1	58	P	P	f	1272.31	1	2	56	8	24	i	n	917.87	0	1000	100	1	1
224	1	59	P	P	f	1082.37	1	9	24	4	56	i	n	1523.08	1	100	100	0	1
224	1	60	N	N	d	1554.28	0	3	24	9	56	c	j	3074.96	0	100	100	1	0
224	1	61	P	P	f	1003.47	1	4	56	9	24	i	n	1026.61	0	100	1000	1	1
224	1	62	N	N	d	2693.23	0	3	56	8	24	i	n	1099.83	1	1000	100	1	1
224	1	63	P	P	f	922.41	1	2	24	7	56	c	j	1198.32	0	100	1000	1	0
224	1	64	P	P	f	1382.35	1	4	56	9	24	i	n	1095.21	0	100	1000	0	1
224	1	65	N	N	d	7590.15	0	3	24	7	56	c	j	5146.03	0	100	1000	1	1
224	2	1	N	N	d	964.97	0	7	24	4	56	i	n	881.31	0	1000	1000	-1	0
224	2	2	N	N	d	1112.28	0	2	56	9	24	i	j	1126.29	0	1000	100	0	1
224	2	3	P	P	f	1163.46	1	3	24	9	56	c	j	857.42	0	100	100	1	1
224	2	4	N	N	d	1779.68	0	4	56	9	24	i	j	1801.66	0	1000	100	1	1
224	2	5	P	P	f	889.35	1	7	56	2	24	c	j	4112.31	1	1000	1000	1	1
224	2	6	N	N	d	1792.92	0	3	56	7	24	i	j	4092.14	0	100	1000	1	0
224	2	7	P	P	f	956.88	1	7	56	2	24	c	n	5126.1	0	100	1000	1	1
224	2	8	P	P	f	1833.53	1	7	56	4	24	c	j	1196.49	1	1000	1000	0	1
224	2	9	P	P	d	3067.88	1	8	24	3	56	i	n	804.63	1	100	100	0	0
224	2	10	N	N	d	1123.63	0	9	24	2	56	i	j	1054.15	1	1000	100	1	0
224	2	11	N	N	d	1168.57	0	8	56	3	24	c	j	1048.94	1	100	100	0	0
224	2	12	N	N	d	763.83	0	7	24	2	56	i	n	632.88	0	1000	1000	0	0
224	2	13	P	P	f	1428.42	1	4	24	8	56	c	j	1868.31	0	1000	100	1	1
224	2	14	N	N	d	956.68	0	3	24	8	56	c	j	1289.82	0	1000	100	1	1
224	2	15	N	N	d	1080.23	0	8	56	2	24	c	j	1308.18	1	1000	100	0	1
224	2	16	P	P	f	980.92	1	4	56	7	24	i	j	543.15	1	1000	1000	1	0
224	2	17	N	N	d	1005.81	0	9	24	3	56	i	n	511.44	0	1000	1000	1	0
224	2	18	N	N	d	1661.34	0	2	24	8	56	c	n	629.78	1	100	100	0	1
224	2	19	N	N	d	940.95	0	3	56	7	24	i	n	739.16	1	1000	1000	0	0
224	2	20	P	P	f	935.37	1	2	56	7	24	i	j	1138.97	1	100	100	1	0
224	2	21	P	P	f	2733.52	1	8	56	4	24	c	j	815.31	1	1000	100	0	0
224	2	22	P	P	d	2350.08	1	9	56	2	24	c	j	2231.99	1	100	100	0	0
224	2	23	N	N	d	1122.88	0	3	24	9	56	c	j	1233.81	0	100	100	1	0
224	2	24	P	P	f	967.54	1	8	24	2	56	i	n	783.04	1	100	1000	1	1
224	2	25	N	N	d	956.3	0	8	56	3	24	c	j	2201.07	1	100	100	1	0
224	2	26	N	N	d	1664.26	0	2	24	7	56	c	j	3097.15	0	1000	100	0	0
224	2	27	N	N	d	1008.01	0	3	56	8	24	i	j	3305.05	0	100	100	0	1
224	2	28	P	P	f	2202.69	1	4	24	9	56	c	n	939.74	1	1000	1000	1	1
224	2	29	P	P	f	1238.42	1	3	24	7	56	c	n	2672.14	1	1000	100	0	0
224	2	30	P	P	f	4004.07	1	7	24	4	56	i	n	984.17	1	100	1000	0	0
224	2	31	P	P	f	1148.15	1	3	56	9	24	i	j	836.89	1	1000	100	0	0
224	2	32	N	N	d	967.06	0	9	24	4	56	i	n	883.03	0	100	1000	1	0
224	2	33	N	N	d	843.45	0	7	24	3	56	i	j	877.21	1	100	100	0	1
224	2	34	N	N	d	1130.25	0	9	24	4	56	i	j	959.63	1	1000	100	0	0
224	2	35	P	P	f	2051.31	1	8	24	3	56	i	n	850.4	1	1000	100	1	0
224	2	36	P	P	d	1282.97	1	4	24	8	56	c	n	2042.08	1	100	100	0	0
224	2	37	P	P	d	2399.38	1	2	24	8	56	c	j	1038.31	0	100	1000	0	0
224	2	38	P	P	d	1754.49	1	3	56	8	24	i	n	6507.24	0	100	100	0	1
224	2	39	N	N	d	957.42	0	4	56	8	24	i	j	986.16	0	1000	1000	1	1
224	2	40	P	P	d	977.18	1	3	24	8	56	c	n	988.43	1	100	1000	1	1
224	2	41	P	P	d	1169.84	1	7	24	2	56	i	j	2849.65	0	1000	100	0	0
224	2	42	P	P	d	2461.91	1	7	56	4	24	c	n	798.27	0	100	1000	0	1
224	2	43	N	N	d	1753.42	0	7	56	3	24	c	j	2196.43	1	100	1000	1	1
224	2	44	P	P	d	2493.71	1	4	56	9	24	i	n	1234.85	0	100	1000	1	0
224	2	45	P	P	d	1496.7	1	9	24	2	56	i	n	1599.83	1	1000	1000	0	1
224	2	46	N	N	f	2283.3	0	3	56	8	24	i	j	1230.83	0	100	100	1	0
224	2	47	N	N	f	1234.81	0	2	24	7	56	c	j	1419.06	0	100	1000	0	1
224	2	48	N	N	d	1414.06	0	9	56	4	24	c	n	1081.71	0	1000	1000	0	1
224	2	49	P	P	f	2012.18	1	3	56	7	24	i	j	956.7	1	1000	100	1	1
224	2	50	N	N	d	2769.32	0	9	24	2	56	i	n	2684.77	0	100	100	1	0
224	2	51	N	N	d	1090.88	0	4	24	7	56	c	j	1188.64	0	1000	1000	0	1
224	2	52	P	P	f	1406.35	1	9	24	3	56	i	j	1153.67	0	100	100	1	1
224	2	53	N	N	d	1325.07	0	8	56	2	24	c	j	4330.0	1	1000	100	1	1
224	2	54	N	N	d	1185.18	0	7	56	4	24	c	n	1656.18	0	100	1000	0	0
224	2	55	P	P	d	2801.49	1	8	56	3	24	c	j	2019.21	1	100	100	1	1
224	2	56	P	P	d	1032.11	1	4	56	9	24	i	n	723.61	0	100	1000	0	0
224	2	57	N	N	d	4648.41	0	8	56	2	24	c	j	1507.82	1	1000	1000	1	1
224	2	58	P	P	d	1137.25	1	8	24	4	56	i	n	4300.51	1	1000	1000	1	0
224	2	59	P	P	d	1256.63	1	2	56	9	24	i	j	782.76	1	1000	1000	0	0
224	2	60	P	P	d	798.07	1	3	24	7	56	c	n	869.91	1	1000	1000	0	0
224	2	61	N	N	f	3328.59	0	2	24	7	56	c	n	1145.35	1	100	1000	1	0
224	2	62	P	P	d	1075.48	1	7	56	3	24	c	n	1044.71	0	1000	100	1	0
224	2	63	N	N	f	1501.68	0	2	24	8	56	c	n	2942.99	1	1000	1000	1	1
224	2	64	N	N	f	4524.94	0	4	56	8	24	i	j	2130.43	0	100	1000	0	0
224	2	65	N	N	d	1211.99	0	8	24	3	56	i	n	854.69	0	100	1000	0	1
224	3	1	N	N	d	1747.92	0	2	24	7	56	c	n	812.58	1	1000	1000	-1	0
224	3	2	P	P	f	963.63	1	4	24	7	56	c	n	946.51	1	1000	1000	1	0
224	3	3	N	N	d	4665.14	0	2	56	9	24	i	j	5659.23	0	1000	1000	1	0
224	3	4	N	N	d	1191.83	0	4	56	7	24	i	n	1438.0	1	100	100	0	1
224	3	5	N	N	d	1066.86	0	9	24	2	56	i	j	1761.86	1	1000	100	0	0
224	3	6	P	P	f	950.71	1	3	56	9	24	i	n	1321.48	0	1000	1000	1	0
224	3	7	P	P	f	1405.03	1	2	56	9	24	i	n	815.58	0	1000	100	0	1
224	3	8	P	P	f	1146.44	1	4	24	8	56	c	n	1497.59	1	1000	1000	0	1
224	3	9	P	P	f	1538.45	1	7	56	2	24	c	j	1421.67	1	1000	1000	0	0
224	3	10	N	N	d	1045.08	0	9	24	4	56	i	n	799.13	0	1000	1000	1	0
224	3	11	N	N	f	1765.87	0	8	56	2	24	c	j	892.56	1	100	1000	0	1
224	3	12	P	P	f	1409.91	1	8	56	4	24	c	n	549.94	0	1000	100	1	0
224	3	13	N	N	d	1676.86	0	2	24	7	56	c	j	1394.04	0	100	1000	1	1
224	3	14	P	P	f	1669.46	1	9	24	3	56	i	n	518.8	1	1000	1000	1	1
224	3	15	N	N	d	492.5	0	2	24	9	56	c	j	606.41	0	1000	100	1	0
224	3	16	P	P	d	619.23	1	4	24	7	56	c	n	645.43	1	1000	100	1	1
224	3	17	N	N	d	1234.06	0	7	24	2	56	i	n	612.76	0	100	1000	1	0
224	3	18	P	P	f	1279.81	1	7	24	3	56	i	n	1262.01	1	100	1000	1	1
224	3	19	N	N	d	996.2	0	2	24	9	56	c	n	1238.39	1	1000	1000	1	0
224	3	20	P	P	f	1124.2	1	8	24	3	56	i	n	1571.82	1	1000	100	1	0
224	3	21	P	P	f	2812.42	1	4	56	9	24	i	j	1530.06	1	100	100	0	0
224	3	22	N	N	d	1020.66	0	2	24	9	56	c	n	791.81	1	100	100	1	0
224	3	23	P	P	f	1713.62	1	4	56	9	24	i	n	1162.08	0	100	100	1	0
224	3	24	P	P	f	906.41	1	7	24	2	56	i	n	1121.54	1	100	100	0	1
224	3	25	N	N	d	729.3	0	9	56	3	24	c	j	835.11	1	1000	100	1	0
224	3	26	P	P	f	1572.83	1	2	24	8	56	c	n	691.49	1	100	1000	1	0
224	3	27	N	N	d	1083.49	0	4	56	7	24	i	j	1311.82	0	100	100	1	0
224	3	28	P	P	f	816.7	1	3	56	8	24	i	n	1152.61	0	100	1000	1	1
224	3	29	P	P	f	963.66	1	9	24	4	56	i	n	711.71	1	1000	1000	0	1
224	3	30	P	P	f	840.02	1	8	24	3	56	i	n	681.28	1	100	1000	0	0
224	3	31	N	N	d	1202.2	0	7	56	2	24	c	j	400.69	1	1000	1000	1	0
224	3	32	P	P	f	833.59	1	3	56	9	24	i	j	659.19	1	1000	100	1	0
224	3	33	P	P	f	600.5	1	2	56	9	24	i	j	332.5	1	100	1000	0	0
224	3	34	N	N	f	832.79	0	7	24	4	56	i	n	557.41	0	100	100	1	0
224	3	35	N	N	f	586.75	0	3	24	7	56	c	j	1904.91	0	1000	1000	0	1
224	3	36	N	N	f	910.99	0	2	24	9	56	c	n	821.67	1	100	100	0	1
224	3	37	P	P	d	2700.2	1	4	24	8	56	c	n	2806.42	1	100	100	1	0
224	3	38	P	P	f	730.76	1	3	24	9	56	c	j	564.61	0	100	1000	0	0
224	3	39	N	N	d	663.57	0	4	56	9	24	i	j	2387.15	0	100	1000	1	1
224	3	40	N	N	d	1325.11	0	9	24	3	56	i	n	638.59	0	100	100	0	1
224	3	41	P	P	d	935.06	1	7	24	4	56	i	n	643.28	1	100	100	1	1
224	3	42	N	N	d	5.08	0	3	56	8	24	i	n	1615.53	1	1000	100	1	0
224	3	43	P	P	d	853.13	1	7	56	4	24	c	j	520.03	1	1000	1000	1	0
224	3	44	P	P	d	640.22	1	3	24	7	56	c	n	537.36	1	100	100	0	0
224	3	45	P	P	f	673.29	1	4	56	9	24	i	j	389.86	1	1000	1000	0	0
224	3	46	P	P	f	744.39	1	7	56	2	24	c	n	472.33	0	100	1000	0	0
224	3	47	P	P	f	720.8	1	3	24	8	56	c	n	747.54	1	1000	100	0	1
224	3	48	P	P	f	538.72	1	7	56	2	24	c	j	479.63	1	100	100	0	0
224	3	49	P	P	d	592.59	1	7	24	3	56	i	n	775.8	1	1000	100	0	0
224	3	50	N	N	f	1466.76	0	8	24	4	56	i	j	634.68	1	1000	100	1	0
224	3	51	N	N	d	2145.74	0	3	24	7	56	c	n	607.04	1	100	1000	0	0
224	3	52	N	N	d	-483.48	0	2	56	8	24	i	j	800.85	0	1000	1000	0	0
224	3	53	P	P	f	721.27	1	8	56	4	24	c	j	479.11	1	100	100	1	1
224	3	54	N	N	d	784.05	0	9	56	2	24	c	n	489.89	0	100	1000	1	0
224	3	55	N	N	f	383.85	0	7	24	3	56	i	n	456.2	0	1000	1000	0	1
224	3	56	N	N	f	720.73	0	4	56	7	24	i	j	522.92	0	1000	100	0	1
224	3	57	N	N	d	1442.4	0	7	24	2	56	i	n	638.5	0	100	1000	0	1
224	3	58	N	N	d	2610.72	0	3	56	8	24	i	j	1088.37	0	100	1000	0	1
224	3	59	P	P	f	843.91	1	9	56	2	24	c	j	708.7	1	100	1000	1	1
224	3	60	P	P	f	891.47	1	7	56	4	24	c	n	763.06	0	1000	100	0	0
224	3	61	N	N	d	1020.29	0	8	56	2	24	c	j	443.63	1	100	100	1	1
224	3	62	N	N	f	354.0	0	9	56	4	24	c	j	1106.69	1	1000	1000	0	0
224	3	63	N	N	f	563.88	0	2	24	8	56	c	n	475.76	1	1000	100	0	0
224	3	64	N	N	f	544.82	0	7	56	3	24	c	j	518.87	1	100	100	0	0
224	3	65	N	N	f	582.95	0	7	56	2	24	c	j	500.55	1	1000	100	0	0
224	4	1	P	P	d	3320.53	1	2	56	8	24	i	j	1492.04	1	100	100	-1	0
224	4	2	N	N	f	1297.55	0	3	56	7	24	i	j	1554.78	0	100	1000	1	0
224	4	3	P	P	f	1641.41	1	2	56	8	24	i	n	1323.94	0	1000	100	1	1
224	4	4	P	P	d	1170.89	1	7	24	4	56	i	n	1286.62	1	1000	1000	0	1
224	4	5	N	N	f	1990.06	0	3	24	8	56	c	j	1681.37	0	100	1000	1	0
224	4	6	N	N	f	1662.77	0	4	56	8	24	i	j	799.61	0	100	1000	0	1
224	4	7	N	N	f	1439.6	0	7	24	3	56	i	n	681.45	0	1000	100	0	1
224	4	8	P	P	d	966.83	1	7	56	2	24	c	j	995.11	1	100	1000	1	1
224	4	9	N	N	f	1110.19	0	4	24	8	56	c	n	674.23	1	100	100	1	0
224	4	10	N	N	f	1351.95	0	2	56	9	24	i	n	1087.61	1	1000	100	0	0
224	4	11	N	N	f	1180.91	0	9	56	3	24	c	j	1160.95	1	100	1000	0	0
224	4	12	N	N	f	1118.58	0	9	24	4	56	i	n	1363.88	0	1000	1000	0	0
224	4	13	P	P	d	895.66	1	7	56	3	24	c	j	901.24	1	1000	1000	1	1
224	4	14	P	P	f	688.52	1	7	56	4	24	c	n	567.65	0	100	1000	0	0
224	4	15	N	N	f	621.37	0	2	56	9	24	i	j	522.79	0	100	100	1	1
224	4	16	P	P	d	709.79	1	3	24	9	56	c	n	651.58	1	1000	100	1	1
224	4	17	N	N	f	1088.55	0	7	56	2	24	c	j	397.99	1	1000	1000	1	0
224	4	18	N	N	f	493.08	0	4	24	9	56	c	j	494.26	0	1000	1000	0	0
224	4	19	N	N	f	781.6	0	9	56	3	24	c	j	668.51	1	1000	100	0	1
224	4	20	N	N	f	571.77	0	4	24	9	56	c	n	375.9	1	100	1000	0	0
224	4	21	P	P	d	297.0	1	2	24	8	56	c	n	576.4	1	1000	1000	1	0
224	4	22	P	P	f	623.76	1	4	24	9	56	c	n	390.73	1	100	1000	0	0
224	4	23	P	P	d	642.8	1	9	56	2	24	c	j	583.54	1	1000	1000	0	0
224	4	24	N	N	f	461.42	0	8	56	4	24	c	j	834.27	1	1000	100	1	0
224	4	25	P	P	d	642.32	1	8	24	3	56	i	n	898.75	1	1000	100	1	0
224	4	26	P	P	f	324.28	1	8	24	4	56	i	n	752.02	1	1000	100	0	0
224	4	27	N	N	f	1459.55	0	8	56	3	24	c	j	764.38	1	100	100	1	0
224	4	28	P	P	d	1899.42	1	9	56	4	24	c	j	1670.23	1	100	100	1	0
224	4	29	N	N	f	1661.71	0	3	56	8	24	i	j	809.21	0	1000	1000	1	0
224	4	30	N	N	d	1781.03	0	4	56	8	24	i	j	767.33	0	1000	1000	0	1
224	4	31	P	P	f	1260.03	1	3	56	7	24	i	j	741.81	1	1000	1000	1	1
224	4	32	P	P	f	555.02	1	7	24	2	56	i	n	1276.14	1	100	1000	0	0
224	4	33	N	N	f	319.12	0	4	24	8	56	c	n	339.9	1	1000	1000	1	0
224	4	34	P	P	f	633.39	1	2	24	8	56	c	n	286.96	1	100	1000	1	0
224	4	35	P	P	f	357.46	1	4	56	7	24	i	j	311.92	1	1000	1000	0	0
224	4	36	P	P	f	582.21	1	7	56	2	24	c	n	387.54	0	100	100	0	0
224	4	37	P	P	f	427.69	1	4	56	7	24	i	j	325.99	1	100	1000	0	1
224	4	38	N	N	f	432.51	0	2	24	7	56	c	n	646.89	1	1000	100	1	0
224	4	39	P	P	f	683.72	1	4	56	9	24	i	n	344.94	0	100	100	1	0
224	4	40	P	P	f	1165.43	1	3	56	8	24	i	n	465.81	0	1000	100	0	1
224	4	41	N	N	f	1058.34	0	9	56	2	24	c	n	671.69	0	100	1000	1	1
224	4	42	N	N	d	2531.11	0	8	56	3	24	c	n	4354.91	0	1000	1000	0	1
224	4	43	N	N	f	2847.07	0	4	24	9	56	c	n	4524.15	1	1000	100	0	1
224	4	44	N	N	d	3408.0	0	7	24	3	56	i	j	726.51	1	100	100	0	0
224	4	45	P	P	f	2580.26	1	9	56	4	24	c	j	2724.42	1	1000	100	1	0
224	4	46	P	P	f	854.54	1	3	24	9	56	c	n	882.23	1	1000	1000	0	0
224	4	47	N	N	d	1123.95	0	4	56	9	24	i	j	682.42	0	1000	100	1	0
224	4	48	N	N	f	652.49	0	8	24	2	56	i	n	688.72	0	100	1000	0	1
224	4	49	N	N	d	822.45	0	3	56	8	24	i	j	535.61	0	100	100	0	1
224	4	50	N	N	d	1156.76	0	7	56	4	24	c	j	570.09	1	100	100	0	1
224	4	51	P	P	f	696.4	1	9	24	3	56	i	n	406.52	1	100	1000	1	0
224	4	52	N	N	d	958.45	0	9	24	4	56	i	n	437.31	0	100	100	1	0
224	4	53	P	P	f	527.69	1	7	24	3	56	i	n	617.89	1	1000	1000	1	1
224	4	54	P	P	f	457.7	1	8	56	2	24	c	j	706.82	1	1000	100	0	0
224	4	55	P	P	f	1226.8	1	3	24	8	56	c	n	754.08	1	1000	100	0	0
224	4	56	N	N	d	1214.72	0	8	24	4	56	i	n	834.58	0	100	1000	1	0
224	4	57	N	N	f	558.83	0	3	24	7	56	c	j	584.08	0	100	100	0	1
224	4	58	P	P	f	10100.48	1	2	24	7	56	c	j	828.82	0	100	100	1	1
224	4	59	N	N	f	1345.61	0	8	24	4	56	i	n	382.95	0	1000	1000	1	1
224	4	60	P	P	f	709.19	1	8	24	2	56	i	n	921.71	1	100	100	1	1
224	4	61	P	P	f	5399.93	1	7	24	3	56	i	j	755.53	0	100	100	0	0
224	4	62	N	N	d	2711.8	0	9	24	2	56	i	n	618.04	0	1000	100	1	1
224	4	63	P	P	f	925.69	1	4	56	7	24	i	n	2370.21	0	100	1000	1	1
224	4	64	P	P	d	1695.75	1	2	56	8	24	i	j	496.6	1	100	100	0	1
224	4	65	P	P	f	1707.41	1	4	24	9	56	c	n	660.23	1	100	100	0	0
224	5	1	P	P	d	7198.11	1	8	24	2	56	i	j	5013.29	0	1000	1000	-1	0
224	5	2	N	N	f	1073.65	0	9	56	3	24	c	j	1030.4	1	100	1000	1	1
224	5	3	P	P	d	4699.62	1	7	24	2	56	i	n	1487.51	1	100	100	1	0
224	5	4	N	N	f	1247.79	0	3	56	7	24	i	j	554.4	0	100	100	1	0
224	5	5	N	N	f	943.68	0	4	24	9	56	c	j	664.07	0	1000	100	0	1
224	5	6	P	P	d	1033.62	1	8	56	2	24	c	n	523.22	0	100	1000	1	1
224	5	7	P	P	d	9619.83	1	3	24	9	56	c	n	866.87	1	1000	100	0	1
224	5	8	P	P	d	1170.2	1	4	56	9	24	i	j	531.11	1	1000	1000	0	0
224	5	9	P	P	d	2945.74	1	9	24	2	56	i	n	808.47	1	1000	1000	0	0
224	5	10	P	P	d	4975.58	1	3	56	7	24	i	n	770.7	0	1000	100	0	0
224	5	11	P	P	d	809.15	1	8	56	2	24	c	j	549.71	1	1000	100	0	1
224	5	12	N	N	f	878.39	0	9	24	3	56	i	n	575.18	0	100	100	1	0
224	5	13	N	N	f	1342.84	0	2	24	8	56	c	n	1450.2	1	100	100	0	1
224	5	14	N	N	f	932.72	0	8	24	3	56	i	j	354.13	1	1000	1000	0	0
224	5	15	P	P	d	1777.05	1	2	24	9	56	c	n	1595.89	1	100	1000	1	0
224	5	16	N	N	f	1716.95	0	4	56	7	24	i	j	882.72	0	100	1000	1	0
224	5	17	P	P	d	1157.44	1	2	56	9	24	i	j	1098.67	1	1000	1000	1	1
224	5	18	P	P	d	1101.59	1	3	24	8	56	c	n	1075.11	1	100	1000	0	0
224	5	19	N	N	f	2275.63	0	2	24	8	56	c	n	1154.83	1	1000	1000	1	0
224	5	20	N	N	f	1348.85	0	7	56	4	24	c	j	779.98	1	1000	1000	0	0
224	5	21	P	P	d	1133.02	1	2	56	8	24	i	j	646.54	1	1000	100	1	0
224	5	22	N	N	f	1055.12	0	9	56	3	24	c	j	1310.58	1	100	100	1	0
224	5	23	P	P	d	983.99	1	7	56	4	24	c	j	1299.33	1	1000	1000	1	0
224	5	24	N	N	f	1011.27	0	7	24	2	56	i	n	799.07	0	1000	100	1	0
224	5	25	N	N	f	1260.29	0	7	56	3	24	c	j	1438.85	1	100	1000	0	1
224	5	26	P	P	d	1058.02	1	2	24	9	56	c	n	885.46	1	100	100	1	0
224	5	27	N	N	d	1628.57	0	7	24	4	56	i	j	977.59	1	1000	1000	1	0
224	5	28	N	N	f	1840.52	0	2	56	7	24	i	j	692.21	0	100	1000	0	0
224	5	29	P	P	d	892.46	1	9	56	4	24	c	j	1607.0	1	1000	100	1	1
224	5	30	N	N	f	2532.38	0	3	56	9	24	i	j	1387.46	0	1000	100	1	0
224	5	31	P	P	d	3271.87	1	9	24	4	56	i	n	1295.67	1	1000	1000	1	1
224	5	32	N	N	f	863.01	0	8	24	3	56	i	j	417.11	1	100	1000	1	0
224	5	33	N	N	f	641.99	0	2	56	8	24	i	j	796.74	0	1000	1000	0	0
224	5	34	P	P	d	1200.91	1	3	56	8	24	i	j	309.99	1	100	1000	1	1
224	5	35	P	P	f	286.82	1	8	56	4	24	c	n	262.19	0	1000	1000	0	0
224	5	36	N	N	d	1008.74	0	7	56	3	24	c	j	492.44	1	1000	1000	1	1
224	5	37	N	N	f	622.08	0	7	56	2	24	c	j	839.41	1	1000	100	0	0
224	5	38	N	N	f	743.81	0	9	24	3	56	i	n	596.75	0	100	100	0	0
224	5	39	N	N	f	537.99	0	7	56	2	24	c	j	377.11	1	100	100	0	1
224	5	40	P	P	d	1265.24	1	7	24	3	56	i	n	780.48	1	1000	100	1	0
224	5	41	P	P	d	796.44	1	4	56	9	24	i	j	476.11	1	100	100	0	0
224	5	42	P	P	d	779.78	1	2	24	7	56	c	n	407.33	1	1000	1000	0	0
224	5	43	N	N	f	576.27	0	3	24	9	56	c	n	280.35	1	100	1000	1	0
224	5	44	N	N	f	605.81	0	4	24	8	56	c	j	275.79	0	100	1000	0	0
224	5	45	P	P	d	837.43	1	7	56	3	24	c	j	567.86	1	100	100	1	1
224	5	46	P	P	d	1166.79	1	8	24	4	56	i	n	353.88	1	100	1000	0	0
224	5	47	P	P	d	809.58	1	9	56	3	24	c	j	392.44	1	100	1000	0	0
224	5	48	P	P	d	1062.54	1	4	24	7	56	c	n	485.57	1	100	100	0	0
224	5	49	P	P	d	717.94	1	3	56	7	24	i	n	350.6	0	100	1000	0	0
224	5	50	P	P	d	755.41	1	8	56	4	24	c	j	839.32	1	100	100	0	1
224	5	51	N	N	f	1766.38	0	9	56	3	24	c	j	759.28	1	1000	100	1	0
224	5	52	N	N	f	656.69	0	2	56	8	24	i	j	502.41	0	100	100	0	0
224	5	53	P	P	d	819.43	1	4	56	9	24	i	j	948.57	1	100	100	1	1
224	5	54	N	N	f	573.45	0	3	24	9	56	c	n	559.09	1	100	100	1	0
224	5	55	N	N	f	4065.12	0	4	24	9	56	c	n	315.28	1	1000	1000	0	0
224	5	56	N	N	f	1202.54	0	7	24	2	56	i	n	1218.33	0	1000	100	0	0
224	5	57	N	N	f	976.06	0	8	24	4	56	i	n	312.99	0	100	1000	0	1
224	5	58	P	P	d	345.05	1	3	24	7	56	c	n	980.37	1	1000	100	1	1
224	5	59	P	P	f	1313.84	1	8	24	2	56	i	n	610.66	1	100	100	0	0
224	5	60	N	N	f	782.31	0	4	56	9	24	i	j	1005.52	0	1000	1000	1	0
224	5	61	P	P	f	1598.65	1	9	24	2	56	i	n	880.41	1	100	1000	1	1
224	5	62	N	N	d	1155.74	0	3	24	9	56	c	j	1029.39	0	1000	100	1	0
224	5	63	N	N	d	1784.44	0	4	56	8	24	i	j	4023.73	0	1000	100	0	1
224	5	64	P	P	d	2101.4	1	3	24	8	56	c	j	1298.92	0	1000	1000	1	1
224	5	65	P	P	f	988.45	1	9	24	4	56	i	n	1085.7	1	1000	100	0	1
224	6	1	N	N	d	1179.56	0	4	24	7	56	c	n	2240.72	1	1000	1000	-1	0
224	6	2	N	N	d	1012.83	0	2	56	9	24	i	j	1172.35	0	1000	100	0	0
224	6	3	P	P	f	753.76	1	9	56	4	24	c	j	340.6	1	1000	1000	1	1
224	6	4	P	P	f	857.46	1	7	56	3	24	c	n	1504.17	0	1000	100	0	0
224	6	5	N	N	d	920.69	0	4	24	7	56	c	n	882.28	1	1000	100	1	1
224	6	6	N	N	d	933.64	0	2	56	9	24	i	j	725.64	0	100	1000	0	0
224	6	7	P	P	f	734.16	1	4	56	9	24	i	j	383.65	1	1000	1000	1	1
224	6	8	P	P	f	416.77	1	7	24	3	56	i	n	1030.76	1	1000	100	0	0
224	6	9	N	N	d	796.33	0	7	56	2	24	c	j	992.18	1	1000	100	1	0
224	6	10	N	N	d	824.36	0	3	24	8	56	c	n	863.72	1	1000	100	0	0
224	6	11	N	N	d	853.63	0	7	56	4	24	c	j	408.06	1	100	1000	0	0
224	6	12	N	N	d	768.54	0	3	24	7	56	c	n	1240.54	1	100	100	0	0
224	6	13	P	P	f	823.35	1	4	24	7	56	c	j	614.6	0	100	1000	1	0
224	6	14	N	N	d	921.11	0	9	24	3	56	i	n	872.04	0	100	100	1	1
224	6	15	P	P	f	765.48	1	8	56	2	24	c	j	1106.47	1	100	1000	1	1
224	6	16	N	N	d	924.52	0	4	24	7	56	c	n	1087.5	1	100	1000	1	0
224	6	17	N	N	d	955.77	0	2	24	7	56	c	n	2379.55	1	100	1000	0	0
224	6	18	P	P	d	3415.22	1	8	24	3	56	i	n	1160.13	1	100	1000	1	0
224	6	19	P	P	d	1726.58	1	8	24	4	56	i	n	965.78	1	100	100	0	0
224	6	20	P	P	d	943.78	1	9	24	3	56	i	j	2327.82	0	1000	1000	0	0
224	6	21	N	N	f	1039.37	0	4	56	9	24	i	n	1761.77	1	100	1000	1	1
224	6	22	P	P	f	996.61	1	2	24	9	56	c	n	946.9	1	100	100	1	0
224	6	23	P	P	f	1346.66	1	4	56	9	24	i	j	1836.37	1	1000	100	0	0
224	6	24	N	N	d	2506.94	0	2	56	7	24	i	j	1557.76	0	100	100	1	0
224	6	25	N	N	d	890.64	0	8	24	4	56	i	n	863.6	0	100	100	0	1
224	6	26	P	P	d	6229.44	1	3	56	8	24	i	j	952.89	1	1000	100	1	1
224	6	27	P	P	d	1371.17	1	2	24	8	56	c	n	1083.8	1	100	1000	0	0
224	6	28	P	P	d	1001.6	1	4	56	7	24	i	j	1048.58	1	100	1000	0	0
224	6	29	P	P	d	921.88	1	2	24	7	56	c	n	882.76	1	100	100	0	0
224	6	30	N	N	f	889.56	0	4	24	7	56	c	n	793.93	1	100	100	1	0
224	6	31	P	P	d	827.67	1	2	56	7	24	i	j	787.66	1	100	100	1	0
224	6	32	N	N	f	1765.33	0	3	56	7	24	i	j	959.26	0	1000	1000	1	0
224	6	33	N	N	f	769.28	0	2	56	8	24	i	j	700.95	0	100	100	0	1
224	6	34	P	P	d	682.81	1	7	24	3	56	i	n	973.16	1	1000	100	1	1
224	6	35	P	P	d	778.0	1	8	56	2	24	c	j	945.23	1	100	1000	0	0
224	6	36	N	N	f	928.36	0	3	56	9	24	i	j	822.69	0	1000	100	1	0
224	6	37	N	N	d	2306.94	0	7	24	2	56	i	n	938.44	0	1000	1000	0	1
224	6	38	N	N	d	1102.4	0	3	24	7	56	c	n	924.86	1	1000	1000	0	1
224	6	39	N	N	f	1633.43	0	9	56	2	24	c	j	1422.49	1	1000	1000	0	0
224	6	40	P	P	d	1012.5	1	7	56	4	24	c	j	801.21	1	100	100	1	0
224	6	41	N	N	f	721.2	0	7	56	3	24	c	n	667.92	0	1000	1000	1	0
224	6	42	P	P	d	727.07	1	4	24	9	56	c	j	427.12	0	1000	1000	1	1
224	6	43	P	P	d	850.28	1	9	24	3	56	i	n	781.56	1	100	1000	0	1
224	6	44	N	N	f	898.09	0	9	24	2	56	i	n	1365.66	0	1000	100	1	0
224	6	45	N	N	d	786.71	0	9	24	3	56	i	n	1207.38	0	100	1000	0	1
224	6	46	N	N	d	890.53	0	8	56	2	24	c	j	1054.0	1	1000	100	0	1
224	6	47	P	P	d	886.92	1	9	24	3	56	i	n	880.71	1	1000	1000	1	0
224	6	48	P	P	f	966.33	1	4	56	8	24	i	j	1580.63	1	100	100	0	0
224	6	49	N	N	d	2652.67	0	7	56	3	24	c	j	984.37	1	100	1000	1	0
224	6	50	N	N	f	1036.6	0	7	56	4	24	c	j	1118.22	1	100	100	0	0
224	6	51	P	P	d	777.93	1	2	56	9	24	i	j	933.99	1	100	1000	1	0
224	6	52	P	P	d	776.56	1	3	24	7	56	c	n	1000.8	1	1000	100	0	0
224	6	53	P	P	d	754.54	1	7	56	2	24	c	j	760.37	1	100	100	0	0
224	6	54	N	N	f	793.18	0	7	56	4	24	c	j	719.11	1	100	100	1	0
224	6	55	P	P	d	1358.23	1	3	24	8	56	c	n	931.71	1	1000	100	1	0
224	6	56	N	N	f	843.03	0	8	24	2	56	i	j	290.23	1	100	1000	1	0
224	6	57	N	N	d	879.01	0	7	24	3	56	i	n	834.83	0	1000	100	0	0
224	6	58	P	P	d	884.78	1	8	56	2	24	c	j	688.63	1	1000	100	1	1
224	6	59	P	P	f	1192.0	1	4	56	8	24	i	n	863.83	0	1000	1000	0	0
224	6	60	P	P	d	1346.52	1	9	56	3	24	c	j	1149.75	1	1000	1000	0	1
224	6	61	N	N	f	842.37	0	9	24	4	56	i	n	842.06	0	1000	1000	1	0
224	6	62	P	P	d	1218.69	1	8	24	3	56	i	j	722.88	0	100	100	1	1
224	6	63	P	P	d	1822.9	1	2	24	8	56	c	n	466.27	1	1000	1000	0	1
224	6	64	N	N	f	1058.14	0	4	24	9	56	c	n	1729.16	1	1000	1000	1	0
224	6	65	N	N	d	1152.45	0	2	56	9	24	i	j	1521.42	0	1000	1000	0	0
