subj	block	trial	task_cue	task	choice_resp	choiceRT	choice_acc	topnum	topsize	botnum	botsize	cong	task_resp	taskRT	task_acc	RSI	CSI	altRep	E1
225	1	1	?	N	d	1901.4	NA	2	24	8	56	c	n	490.08	1	1000	1000	-1	0
225	1	2	?	N	d	1115.63	NA	4	24	7	56	c	n	589.6	1	100	1000	0	0
225	1	3	?	P	f	146.47	NA	9	24	3	56	i	n	891.89	1	1000	1000	0	0
225	1	4	?	P	f	103.88	NA	8	24	4	56	i	n	1310.49	1	1000	100	0	0
225	1	5	?	N	d	556.89	NA	9	56	2	24	c	j	457.67	1	100	1000	0	0
225	1	6	?	P	f	350.59	NA	4	24	8	56	c	n	1121.79	1	1000	100	0	0
225	1	7	?	N	d	472.0	NA	3	24	8	56	c	n	738.67	1	100	100	0	0
225	1	8	?	P	f	-114.59	NA	2	56	8	24	i	j	653.15	1	1000	100	0	0
225	1	9	?	N	d	640.35	NA	3	56	7	24	i	n	1211.09	1	100	1000	0	0
225	1	10	?	P	f	-311.82	NA	7	56	2	24	c	j	816.09	1	1000	100	0	0
225	1	11	?	N	d	641.84	NA	4	24	9	56	c	n	718.15	1	100	100	0	0
225	1	12	?	N	d	637.81	NA	7	24	2	56	i	j	995.88	1	100	100	0	0
225	1	13	?	P	f	-264.6	NA	3	24	8	56	c	n	502.7	1	1000	1000	0	0
225	1	14	?	P	f	380.35	NA	7	24	4	56	i	n	858.17	1	100	1000	0	0
225	1	15	?	N	d	306.7	NA	9	24	3	56	i	j	862.99	1	100	1000	0	0
225	1	16	?	N	d	390.82	NA	2	24	9	56	c	n	740.34	1	100	100	0	0
225	1	17	?	P	f	-394.12	NA	9	56	4	24	c	j	452.89	1	1000	100	0	0
225	1	18	?	P	f	-71.69	NA	8	24	2	56	i	n	1258.5	1	1000	100	0	0
225	1	19	?	P	f	610.84	NA	7	24	3	56	i	n	1327.6	1	100	1000	0	0
225	1	20	?	N	d	-626.76	NA	8	56	2	24	c	j	816.89	1	1000	100	0	0
225	1	21	?	N	d	-328.2	NA	3	24	9	56	c	n	585.14	1	1000	1000	0	0
225	1	22	?	N	d	458.17	NA	8	56	4	24	c	j	538.88	1	100	100	0	0
225	1	23	?	P	f	-260.2	NA	2	24	7	56	c	n	1024.55	1	1000	1000	0	0
225	1	24	?	N	d	688.71	NA	3	56	7	24	i	n	1671.76	1	100	100	0	0
225	1	25	?	P	f	-250.58	NA	2	56	8	24	i	j	685.21	1	1000	1000	0	0
225	1	26	?	N	d	267.22	NA	9	56	3	24	c	j	593.17	1	100	100	0	0
225	1	27	?	N	d	972.8	NA	2	24	9	56	c	n	477.85	1	100	1000	0	0
225	1	28	?	P	f	-298.75	NA	8	56	3	24	c	j	727.59	1	1000	100	0	0
225	1	29	?	N	d	-254.66	NA	2	56	7	24	i	n	1233.17	1	1000	1000	0	0
225	1	30	?	P	f	415.82	NA	4	56	8	24	i	j	466.24	1	100	1000	0	0
225	1	31	?	P	f	394.78	NA	7	56	3	24	c	j	754.54	1	100	1000	0	0
225	1	32	?	N	d	382.31	NA	8	24	4	56	i	j	1129.42	1	100	1000	0	0
225	1	33	?	N	d	333.75	NA	8	56	2	24	c	j	727.69	1	100	100	0	0
225	1	34	?	P	f	-603.29	NA	4	56	9	24	i	n	838.06	0	1000	1000	0	0
225	1	35	?	N	d	450.42	NA	7	24	3	56	i	j	704.95	1	100	100	0	1
225	1	36	?	P	f	787.64	NA	7	56	2	24	c	j	793.06	1	100	100	0	0
225	1	37	?	N	d	161.46	NA	8	56	4	24	c	j	924.04	1	1000	1000	0	0
225	1	38	?	N	d	80.12	NA	2	24	9	56	c	n	521.53	1	1000	100	0	0
225	1	39	?	N	d	595.13	NA	9	24	4	56	i	j	687.72	1	1000	1000	0	0
225	1	40	?	P	f	168.51	NA	7	24	2	56	i	j	599.79	0	100	100	0	0
225	1	41	?	P	f	427.28	NA	3	24	9	56	c	n	630.41	1	1000	100	0	1
225	1	42	?	P	f	673.93	NA	2	24	9	56	c	n	670.41	1	100	1000	0	0
225	1	43	?	N	d	-36.67	NA	3	24	7	56	c	n	754.01	1	1000	100	0	0
225	1	44	?	N	d	753.14	NA	7	56	2	24	c	j	599.78	1	100	1000	0	0
225	1	45	?	N	d	-519.52	NA	9	24	4	56	i	j	686.2	1	1000	1000	0	0
225	1	46	?	N	d	-386.63	NA	3	56	8	24	i	n	550.27	1	1000	100	0	0
225	1	47	?	P	f	-687.59	NA	9	24	4	56	i	n	776.82	1	1000	1000	0	0
225	1	48	?	P	f	-626.45	NA	9	56	2	24	c	j	478.02	1	1000	1000	0	0
225	1	49	?	P	f	512.78	NA	9	24	3	56	i	n	880.96	1	100	100	0	0
225	1	50	?	N	d	-319.48	NA	2	24	8	56	c	n	588.24	1	1000	1000	0	0
225	1	51	?	N	d	44.17	NA	9	24	4	56	i	j	586.93	1	1000	100	0	0
225	1	52	?	N	d	1011.76	NA	9	24	2	56	i	j	809.94	1	100	1000	0	0
225	1	53	?	N	d	961.88	NA	9	24	3	56	i	j	653.93	1	100	100	0	0
225	1	54	?	P	f	741.98	NA	4	24	7	56	c	n	796.89	1	100	100	0	0
225	1	55	?	P	f	-161.88	NA	8	24	2	56	i	n	1089.08	1	1000	1000	0	0
225	1	56	?	N	d	652.12	NA	7	24	3	56	i	j	1071.88	1	1000	100	0	0
225	1	57	?	N	d	1508.19	NA	8	56	2	24	c	j	513.69	1	100	1000	0	0
225	1	58	?	N	d	695.58	NA	3	56	7	24	i	n	743.25	1	100	1000	0	0
225	1	59	?	P	f	-244.17	NA	2	56	8	24	i	j	928.3	1	1000	100	0	0
225	1	60	?	P	f	4.67	NA	9	56	3	24	c	j	456.98	1	1000	1000	0	0
225	1	61	?	P	f	845.99	NA	2	56	9	24	i	j	993.06	1	100	100	0	0
225	1	62	?	P	f	385.83	NA	8	24	3	56	i	n	465.39	1	1000	100	0	0
225	1	63	?	N	d	359.98	NA	4	24	8	56	c	n	572.94	1	100	1000	0	0
225	1	64	?	N	d	135.98	NA	8	56	3	24	c	j	600.08	1	1000	1000	0	0
225	1	65	?	N	d	732.02	NA	2	56	7	24	i	n	1275.83	1	100	100	0	0
225	2	1	?	N	d	2400.55	NA	7	24	2	56	i	j	589.34	1	100	1000	-1	0
225	2	2	?	N	d	-371.98	NA	9	24	4	56	i	j	1250.42	1	1000	1000	0	0
225	2	3	?	P	f	-406.91	NA	8	56	2	24	c	j	450.2	1	1000	1000	0	0
225	2	4	?	P	f	9.86	NA	4	24	7	56	c	n	597.1	1	1000	1000	0	0
225	2	5	?	N	d	392.06	NA	2	56	8	24	i	n	1686.19	1	100	100	0	0
225	2	6	?	N	d	503.91	NA	8	24	3	56	i	j	1252.03	1	100	1000	0	0
225	2	7	?	P	f	-364.98	NA	2	56	8	24	i	n	650.82	0	1000	100	0	0
225	2	8	?	P	f	506.36	NA	3	56	8	24	i	j	682.92	1	1000	100	0	1
225	2	9	?	P	f	1069.29	NA	7	56	2	24	c	j	1094.88	1	100	100	0	0
225	2	10	?	P	f	365.94	NA	9	56	3	24	c	j	399.16	1	100	1000	0	0
225	2	11	?	P	f	-609.26	NA	7	24	2	56	i	n	371.75	1	1000	1000	0	0
225	2	12	?	N	d	191.6	NA	9	56	4	24	c	j	470.13	1	100	1000	0	0
225	2	13	?	N	d	-610.61	NA	3	56	8	24	i	n	797.48	1	1000	1000	0	0
225	2	14	?	N	d	-464.97	NA	2	56	8	24	i	n	729.24	1	1000	1000	0	0
225	2	15	?	N	d	1189.09	NA	8	56	3	24	c	j	1243.69	1	100	1000	0	0
225	2	16	?	P	f	329.68	NA	8	56	4	24	c	j	643.95	1	1000	1000	0	0
225	2	17	?	P	f	320.13	NA	3	24	8	56	c	n	364.42	1	1000	1000	0	0
225	2	18	?	P	f	1259.18	NA	4	56	8	24	i	j	966.12	1	100	100	0	0
225	2	19	?	P	f	-441.56	NA	9	56	2	24	c	j	596.15	1	1000	100	0	0
225	2	20	?	N	d	222.66	NA	4	56	9	24	i	n	1695.05	1	100	100	0	0
225	2	21	?	P	f	-356.55	NA	9	24	2	56	i	n	894.48	1	1000	1000	0	0
225	2	22	?	N	d	-614.82	NA	8	24	4	56	i	j	884.67	1	1000	100	0	0
225	2	23	?	P	f	304.72	NA	2	56	8	24	i	n	693.06	0	100	100	0	0
225	2	24	?	P	f	826.69	NA	4	24	9	56	c	n	629.69	1	100	100	0	1
225	2	25	?	N	d	-342.84	NA	3	24	7	56	c	n	570.4	1	1000	1000	0	0
225	2	26	?	P	f	471.49	NA	2	56	7	24	i	j	736.7	1	100	1000	0	0
225	2	27	?	N	d	291.17	NA	4	56	8	24	i	n	763.02	1	100	100	0	0
225	2	28	?	P	f	223.05	NA	9	24	3	56	i	n	963.79	1	100	100	0	0
225	2	29	?	N	d	143.46	NA	2	24	9	56	c	n	1418.26	1	100	100	0	0
225	2	30	?	P	f	-472.93	NA	3	24	8	56	c	n	530.53	1	1000	1000	0	0
225	2	31	?	P	f	233.87	NA	8	56	4	24	c	j	418.11	1	100	1000	0	0
225	2	32	?	N	d	143.61	NA	2	24	7	56	c	n	595.54	1	100	1000	0	0
225	2	33	?	N	d	-658.15	NA	3	56	7	24	i	n	942.47	1	1000	100	0	0
225	2	34	?	P	f	195.04	NA	9	56	4	24	c	j	700.22	1	100	100	0	0
225	2	35	?	N	d	315.75	NA	9	24	2	56	i	j	2749.84	1	100	1000	0	0
225	2	36	?	P	f	-656.04	NA	3	56	9	24	i	j	1303.69	1	1000	1000	0	0
225	2	37	?	P	f	-341.55	NA	4	24	7	56	c	n	504.73	1	1000	100	0	0
225	2	38	?	N	d	574.55	NA	7	56	2	24	c	j	773.87	1	100	100	0	0
225	2	39	?	N	d	-393.3	NA	9	56	4	24	c	j	554.7	1	1000	100	0	0
225	2	40	?	P	f	-58.47	NA	9	56	3	24	c	j	1654.22	1	1000	100	0	0
225	2	41	?	N	d	392.42	NA	7	24	4	56	i	n	2305.9	0	100	100	0	0
225	2	42	?	N	d	190.75	NA	2	24	8	56	c	n	514.9	1	100	1000	0	1
225	2	43	?	P	f	-622.34	NA	3	56	9	24	i	j	1484.66	1	1000	100	0	0
225	2	44	?	P	f	-372.55	NA	8	24	4	56	i	n	1149.25	1	1000	100	0	0
225	2	45	?	N	d	-711.59	NA	8	56	3	24	c	j	550.71	1	1000	1000	0	0
225	2	46	?	N	d	226.77	NA	2	56	8	24	i	n	1945.5	1	100	1000	0	0
225	2	47	?	N	d	209.02	NA	4	24	9	56	c	n	639.69	1	100	1000	0	0
225	2	48	?	P	f	-675.8	NA	2	56	8	24	i	j	417.56	1	1000	1000	0	0
225	2	49	?	P	f	339.96	NA	3	24	7	56	c	n	547.78	1	100	100	0	0
225	2	50	?	N	d	-644.93	NA	8	56	4	24	c	j	560.68	1	1000	1000	0	0
225	2	51	?	N	d	287.35	NA	2	56	7	24	i	n	545.02	1	100	1000	0	0
225	2	52	?	N	d	-647.8	NA	4	56	9	24	i	n	491.27	1	1000	100	0	0
225	2	53	?	P	f	183.61	NA	7	24	3	56	i	n	884.44	1	100	1000	0	0
225	2	54	?	P	f	69.26	NA	4	24	7	56	c	n	408.34	1	100	1000	0	0
225	2	55	?	P	f	127.48	NA	3	56	9	24	i	j	1014.05	1	100	100	0	0
225	2	56	?	P	f	110.43	NA	4	24	8	56	c	n	439.81	1	100	100	0	0
225	2	57	?	P	f	339.26	NA	3	56	7	24	i	j	535.24	1	100	1000	0	0
225	2	58	?	N	d	133.24	NA	4	56	8	24	i	j	523.55	0	100	1000	0	0
225	2	59	?	N	d	-686.52	NA	3	24	8	56	c	n	429.66	1	1000	100	0	1
225	2	60	?	N	d	-701.84	NA	9	24	2	56	i	j	604.66	1	1000	1000	0	0
225	2	61	?	N	d	56.25	NA	4	24	7	56	c	n	784.11	1	1000	100	0	0
225	2	62	?	P	f	193.0	NA	8	56	2	24	c	j	866.4	1	100	100	0	0
225	2	63	?	N	d	-609.92	NA	8	56	4	24	c	j	1034.95	1	1000	100	0	0
225	2	64	?	N	d	-635.05	NA	2	56	9	24	i	n	684.12	1	1000	100	0	0
225	2	65	?	P	f	-687.01	NA	4	24	8	56	c	n	721.76	1	1000	100	0	0
225	3	1	?	N	d	-338.68	NA	8	56	2	24	c	j	575.04	1	1000	1000	-1	0
225	3	2	?	P	f	-381.23	NA	9	56	4	24	c	j	881.73	1	1000	100	0	0
225	3	3	?	N	d	268.66	NA	3	56	7	24	i	n	656.26	1	100	100	0	0
225	3	4	?	P	f	216.57	NA	7	24	2	56	i	j	646.82	0	100	1000	0	0
225	3	5	?	N	d	-713.81	NA	4	56	8	24	i	n	582.01	1	1000	1000	0	1
225	3	6	?	P	f	877.42	NA	3	24	7	56	c	n	595.6	1	100	1000	0	0
225	3	7	?	N	d	-658.49	NA	4	56	8	24	i	n	828.37	1	1000	1000	0	0
225	3	8	?	N	d	806.02	NA	8	24	3	56	i	j	1053.22	1	100	100	0	0
225	3	9	?	P	f	-566.57	NA	9	24	2	56	i	n	1270.17	1	1000	100	0	0
225	3	10	?	P	f	-668.11	NA	4	24	8	56	c	n	583.95	1	1000	100	0	0
225	3	11	?	N	d	-619.59	NA	7	56	3	24	c	j	721.21	1	1000	1000	0	0
225	3	12	?	P	f	314.96	NA	7	56	4	24	c	j	577.68	1	100	1000	0	0
225	3	13	?	P	f	-175.51	NA	3	24	8	56	c	n	445.81	1	1000	100	0	0
225	3	14	?	N	d	300.79	NA	4	24	8	56	c	n	801.16	1	100	100	0	0
225	3	15	?	N	d	-500.96	NA	7	24	3	56	i	j	593.21	1	1000	100	0	0
225	3	16	?	N	d	-559.27	NA	7	24	2	56	i	j	805.89	1	1000	100	0	0
225	3	17	?	N	d	-542.06	NA	4	56	7	24	i	n	585.62	1	1000	100	0	0
225	3	18	?	P	f	-352.98	NA	3	24	9	56	c	n	572.25	1	1000	100	0	0
225	3	19	?	P	f	856.31	NA	4	56	8	24	i	j	750.15	1	100	100	0	0
225	3	20	?	P	f	-283.03	NA	7	24	2	56	i	n	461.0	1	1000	1000	0	0
225	3	21	?	N	d	-614.18	NA	4	24	8	56	c	n	512.83	1	1000	1000	0	0
225	3	22	?	N	d	559.88	NA	3	24	7	56	c	n	550.81	1	100	100	0	0
225	3	23	?	N	d	-393.95	NA	4	56	8	24	i	n	890.82	1	1000	1000	0	0
225	3	24	?	P	f	429.34	NA	8	56	3	24	c	j	487.51	1	100	100	0	0
225	3	25	?	P	f	-59.08	NA	7	56	4	24	c	j	583.94	1	1000	1000	0	0
225	3	26	?	P	f	159.54	NA	8	24	3	56	i	n	697.3	1	100	100	0	0
225	3	27	?	P	f	111.0	NA	9	24	2	56	i	n	618.43	1	100	1000	0	0
225	3	28	?	N	d	166.24	NA	9	24	4	56	i	n	670.01	0	100	1000	0	0
225	3	29	?	N	d	-195.17	NA	9	24	2	56	i	j	595.39	1	1000	100	0	1
225	3	30	?	N	d	546.43	NA	7	24	4	56	i	n	564.95	0	1000	1000	0	0
225	3	31	?	N	d	876.92	NA	2	56	7	24	i	n	696.1	1	100	1000	0	1
225	3	32	?	P	f	-736.39	NA	7	24	3	56	i	j	695.4	0	1000	100	0	0
225	3	33	?	P	f	-309.99	NA	9	24	4	56	i	n	829.15	1	1000	100	0	1
225	3	34	?	P	f	750.7	NA	2	24	9	56	c	n	501.41	1	100	100	0	0
225	3	35	?	N	d	-376.25	NA	9	24	3	56	i	j	649.27	1	1000	1000	0	0
225	3	36	?	P	f	-496.94	NA	2	56	7	24	i	n	529.82	0	1000	100	0	0
225	3	37	?	P	f	740.33	NA	3	24	7	56	c	n	591.49	1	100	1000	0	1
225	3	38	?	N	d	329.84	NA	8	56	2	24	c	j	543.87	1	100	100	0	0
225	3	39	?	P	f	669.8	NA	3	24	7	56	c	n	2298.61	1	100	1000	0	0
225	3	40	?	N	d	369.27	NA	8	56	2	24	c	j	452.74	1	100	1000	0	0
225	3	41	?	N	d	-589.2	NA	9	24	3	56	i	j	808.02	1	1000	1000	0	0
225	3	42	?	P	f	-696.45	NA	9	56	2	24	c	j	1578.95	1	1000	100	0	0
225	3	43	?	P	f	321.58	NA	7	56	4	24	c	j	512.28	1	100	1000	0	0
225	3	44	?	N	d	-185.99	NA	9	56	3	24	c	j	874.19	1	1000	100	0	0
225	3	45	?	N	d	272.71	NA	4	56	9	24	i	n	1121.86	1	100	100	0	0
225	3	46	?	N	d	-261.14	NA	9	24	2	56	i	j	1496.17	1	1000	1000	0	0
225	3	47	?	N	d	-580.22	NA	3	24	8	56	c	n	1390.68	1	1000	1000	0	0
225	3	48	?	P	f	182.25	NA	9	56	4	24	c	j	1423.58	1	100	100	0	0
225	3	49	?	P	f	-619.87	NA	2	24	8	56	c	n	1665.83	1	1000	1000	0	0
225	3	50	?	P	f	179.31	NA	4	56	9	24	i	j	936.82	1	100	100	0	0
225	3	51	?	N	d	302.16	NA	8	24	3	56	i	j	621.2	1	100	1000	0	0
225	3	52	?	N	d	-665.78	NA	2	24	8	56	c	n	1103.56	1	1000	100	0	0
225	3	53	?	N	d	122.33	NA	7	56	4	24	c	j	411.5	1	100	1000	0	0
225	3	54	?	P	f	108.69	NA	8	24	3	56	i	n	886.68	1	100	1000	0	0
225	3	55	?	P	f	-712.59	NA	8	56	2	24	c	j	516.01	1	1000	1000	0	0
225	3	56	?	N	d	157.28	NA	3	24	8	56	c	n	1257.89	1	100	100	0	0
225	3	57	?	P	f	194.04	NA	2	56	9	24	i	j	686.69	1	100	1000	0	0
225	3	58	?	P	f	200.57	NA	4	56	8	24	i	j	599.5	1	100	100	0	0
225	3	59	?	P	f	292.38	NA	9	24	3	56	i	n	550.8	1	100	100	0	0
225	3	60	?	N	d	-669.49	NA	8	56	2	24	c	j	727.62	1	1000	1000	0	0
225	3	61	?	N	d	-705.04	NA	3	24	8	56	c	n	523.51	1	1000	1000	0	0
225	3	62	?	N	d	103.45	NA	2	24	9	56	c	n	533.04	1	100	1000	0	0
225	3	63	?	N	d	124.24	NA	8	56	4	24	c	j	785.88	1	100	100	0	0
225	3	64	?	P	f	301.64	NA	3	56	9	24	i	j	575.76	1	100	1000	0	0
225	3	65	?	P	f	-728.68	NA	7	56	4	24	c	j	713.9	1	1000	100	0	0
225	4	1	?	N	d	399.5	NA	2	24	8	56	c	n	535.74	1	100	100	-1	0
225	4	2	?	N	d	301.34	NA	9	24	3	56	i	j	710.71	1	100	1000	0	0
225	4	3	?	N	d	-682.09	NA	4	24	9	56	c	n	568.36	1	1000	1000	0	0
225	4	4	?	N	d	155.46	NA	7	24	2	56	i	j	579.74	1	100	1000	0	0
225	4	5	?	N	d	188.99	NA	8	24	3	56	i	j	839.42	1	100	100	0	0
225	4	6	?	P	f	125.37	NA	2	24	8	56	c	n	684.89	1	100	100	0	0
225	4	7	?	P	f	-714.05	NA	3	56	7	24	i	n	639.26	0	1000	100	0	0
225	4	8	?	P	f	-372.52	NA	7	56	4	24	c	j	496.21	1	1000	100	0	1
225	4	9	?	P	f	166.73	NA	3	24	7	56	c	n	444.82	1	100	1000	0	0
225	4	10	?	N	d	-535.21	NA	7	24	2	56	i	j	1075.24	1	1000	1000	0	0
225	4	11	?	P	f	-741.01	NA	4	56	8	24	i	j	1500.9	1	1000	100	0	0
225	4	12	?	N	d	281.32	NA	2	24	8	56	c	n	1085.61	1	100	100	0	0
225	4	13	?	N	d	1234.65	NA	3	56	8	24	i	n	895.75	1	100	1000	0	0
225	4	14	?	N	d	198.3	NA	4	56	9	24	i	n	567.46	1	100	100	0	0
225	4	15	?	P	f	-680.4	NA	3	24	9	56	c	n	738.64	1	1000	1000	0	0
225	4	16	?	P	f	192.23	NA	7	56	2	24	c	j	584.37	1	100	100	0	0
225	4	17	?	P	f	519.5	NA	3	56	9	24	i	j	960.81	1	100	100	0	0
225	4	18	?	P	f	-750.57	NA	4	24	8	56	c	n	524.13	1	1000	100	0	0
225	4	19	?	P	f	677.64	NA	8	24	3	56	i	n	820.96	1	100	1000	0	0
225	4	20	?	P	f	156.34	NA	9	56	2	24	c	j	503.52	1	1000	100	0	0
225	4	21	?	N	d	1741.48	NA	4	56	7	24	i	j	930.78	0	1000	100	0	0
225	4	22	?	N	d	257.18	NA	3	24	9	56	c	n	434.77	1	100	1000	0	1
225	4	23	?	N	d	-544.98	NA	4	56	9	24	i	j	390.99	0	1000	1000	0	0
225	4	24	?	N	d	430.14	NA	9	24	2	56	i	j	869.53	1	1000	100	0	1
225	4	25	?	P	f	-611.78	NA	4	56	7	24	i	j	820.32	1	1000	100	0	0
225	4	26	?	P	f	290.77	NA	3	56	9	24	i	j	986.88	1	100	1000	0	0
225	4	27	?	N	d	201.42	NA	2	56	8	24	i	n	1533.14	1	100	100	0	0
225	4	28	?	N	d	-340.13	NA	4	56	7	24	i	n	1630.9	1	1000	1000	0	0
225	4	29	?	P	f	-511.47	NA	9	56	3	24	c	j	526.51	1	1000	100	0	0
225	4	30	?	P	f	162.54	NA	7	24	4	56	i	n	789.33	1	100	1000	0	0
225	4	31	?	P	f	192.91	NA	7	56	2	24	c	j	550.96	1	100	100	0	0
225	4	32	?	N	d	188.57	NA	4	24	9	56	c	n	524.55	1	100	100	0	0
225	4	33	?	N	d	-606.73	NA	7	56	3	24	c	j	1263.13	1	1000	1000	0	0
225	4	34	?	N	d	-579.85	NA	4	24	9	56	c	n	548.25	1	1000	100	0	0
225	4	35	?	P	f	88.94	NA	2	56	7	24	i	j	671.11	1	100	100	0	0
225	4	36	?	P	f	-699.71	NA	4	24	8	56	c	n	518.09	1	1000	100	0	0
225	4	37	?	P	f	447.51	NA	2	56	9	24	i	j	317.96	1	100	1000	0	0
225	4	38	?	N	d	300.76	NA	3	56	7	24	i	n	1240.06	1	100	100	0	0
225	4	39	?	N	d	158.74	NA	2	56	7	24	i	n	751.91	1	100	1000	0	0
225	4	40	?	P	f	-364.65	NA	9	56	4	24	c	j	503.43	1	1000	1000	0	0
225	4	41	?	P	f	156.65	NA	2	24	8	56	c	n	445.94	1	100	1000	0	0
225	4	42	?	P	f	267.29	NA	7	56	4	24	c	j	422.62	1	100	1000	0	0
225	4	43	?	N	d	-742.91	NA	8	24	3	56	i	j	564.28	1	1000	1000	0	0
225	4	44	?	N	d	-757.68	NA	4	56	9	24	i	n	628.91	1	1000	100	0	0
225	4	45	?	N	d	390.31	NA	8	24	2	56	i	j	526.04	1	100	100	0	0
225	4	46	?	N	d	-649.94	NA	9	24	3	56	i	j	578.06	1	1000	1000	0	0
225	4	47	?	P	f	-670.3	NA	7	24	2	56	i	n	626.64	1	1000	100	0	0
225	4	48	?	P	f	219.58	NA	4	24	7	56	c	n	881.33	1	100	100	0	0
225	4	49	?	P	f	-701.18	NA	9	24	2	56	i	n	594.62	1	1000	1000	0	0
225	4	50	?	N	d	130.9	NA	8	56	4	24	c	j	521.59	1	100	100	0	0
225	4	51	?	N	d	-597.82	NA	3	56	8	24	i	n	563.44	1	1000	1000	0	0
225	4	52	?	N	d	-634.9	NA	8	24	4	56	i	j	1246.14	1	1000	1000	0	0
225	4	53	?	P	f	-636.23	NA	8	56	2	24	c	j	548.16	1	1000	100	0	0
225	4	54	?	P	f	-757.21	NA	9	56	3	24	c	n	347.11	0	1000	1000	0	0
225	4	55	?	P	f	504.92	NA	9	56	4	24	c	j	534.63	1	100	100	0	1
225	4	56	?	P	f	-736.1	NA	8	56	3	24	c	j	480.66	1	1000	1000	0	0
225	4	57	?	N	d	-768.88	NA	2	24	9	56	c	n	1079.14	1	1000	100	0	0
225	4	58	?	N	d	-726.47	NA	4	24	9	56	c	n	446.15	1	1000	1000	0	0
225	4	59	?	N	d	187.27	NA	7	56	2	24	c	j	511.82	1	100	1000	0	0
225	4	60	?	N	d	311.18	NA	7	56	3	24	c	j	393.62	1	100	1000	0	0
225	4	61	?	N	d	-693.47	NA	4	56	7	24	i	n	603.36	1	1000	100	0	0
225	4	62	?	N	d	190.5	NA	3	56	7	24	i	n	458.7	1	100	100	0	0
225	4	63	?	N	d	-583.36	NA	2	24	8	56	c	n	476.14	1	1000	1000	0	0
225	4	64	?	P	f	162.67	NA	9	56	4	24	c	j	789.68	1	100	1000	0	0
225	4	65	?	P	f	317.08	NA	2	24	7	56	c	n	613.8	1	100	1000	0	0
225	5	1	?	N	d	-633.35	NA	9	24	4	56	i	j	663.27	1	1000	100	-1	0
225	5	2	?	N	d	-409.66	NA	8	24	2	56	i	j	628.41	1	1000	100	0	0
225	5	3	?	N	d	-647.92	NA	3	56	9	24	i	n	568.89	1	1000	1000	0	0
225	5	4	?	P	f	335.41	NA	8	56	4	24	c	j	644.49	1	100	1000	0	0
225	5	5	?	P	f	-738.79	NA	8	24	3	56	i	n	1018.26	1	1000	1000	0	0
225	5	6	?	N	d	-624.31	NA	9	56	4	24	c	j	570.65	1	1000	1000	0	0
225	5	7	?	P	f	302.38	NA	8	24	2	56	i	n	1083.38	1	100	1000	0	0
225	5	8	?	N	d	-530.54	NA	8	24	4	56	i	n	755.05	0	1000	100	0	0
225	5	9	?	N	d	877.5	NA	7	24	3	56	i	j	1339.62	1	100	100	0	1
225	5	10	?	P	f	-687.69	NA	4	24	9	56	c	n	900.47	1	1000	1000	0	0
225	5	11	?	P	f	-11.72	NA	7	24	3	56	i	n	890.33	1	1000	100	0	0
225	5	12	?	P	f	-697.35	NA	8	56	4	24	c	j	498.35	1	1000	100	0	0
225	5	13	?	N	d	-610.74	NA	9	56	3	24	c	j	471.45	1	1000	1000	0	0
225	5	14	?	N	d	191.74	NA	9	24	4	56	i	j	942.58	1	100	1000	0	0
225	5	15	?	N	d	161.61	NA	7	24	3	56	i	j	666.52	1	100	100	0	0
225	5	16	?	P	f	168.97	NA	9	24	2	56	i	n	621.73	1	100	1000	0	0
225	5	17	?	P	f	-687.76	NA	3	24	7	56	c	n	518.67	1	1000	100	0	0
225	5	18	?	P	f	189.76	NA	2	24	7	56	c	n	388.76	1	100	1000	0	0
225	5	19	?	N	d	159.01	NA	9	24	3	56	i	j	875.86	1	100	1000	0	0
225	5	20	?	N	d	150.78	NA	7	56	2	24	c	j	575.21	1	100	1000	0	0
225	5	21	?	N	d	-684.06	NA	4	56	7	24	i	n	746.72	1	1000	100	0	0
225	5	22	?	P	f	448.51	NA	7	24	3	56	i	n	590.37	1	100	100	0	0
225	5	23	?	P	f	788.77	NA	4	24	8	56	c	n	535.27	1	1000	100	0	0
225	5	24	?	P	f	266.8	NA	9	24	3	56	i	n	716.75	1	100	100	0	0
225	5	25	?	N	d	169.33	NA	4	56	9	24	i	n	835.54	1	100	1000	0	0
225	5	26	?	N	d	133.08	NA	8	56	3	24	c	j	579.47	1	100	1000	0	0
225	5	27	?	N	d	-713.97	NA	8	24	2	56	i	j	604.61	1	1000	1000	0	0
225	5	28	?	P	f	78.29	NA	4	24	8	56	c	n	530.54	1	100	1000	0	0
225	5	29	?	P	f	-555.72	NA	2	24	9	56	c	n	391.2	1	1000	1000	0	0
225	5	30	?	P	f	-729.87	NA	3	56	9	24	i	j	488.47	1	1000	100	0	0
225	5	31	?	P	f	225.34	NA	4	56	8	24	i	j	448.49	1	100	1000	0	0
225	5	32	?	N	d	-745.58	NA	3	56	8	24	i	n	505.43	1	1000	1000	0	0
225	5	33	?	N	d	-721.67	NA	9	24	2	56	i	j	562.61	1	1000	1000	0	0
225	5	34	?	N	d	120.65	NA	9	56	3	24	c	n	793.7	0	100	100	0	0
225	5	35	?	N	d	433.67	NA	8	56	2	24	c	j	625.42	1	100	100	0	1
225	5	36	?	P	f	128.05	NA	4	24	9	56	c	n	507.9	1	100	100	0	0
225	5	37	?	P	f	228.36	NA	3	56	7	24	i	j	473.97	1	100	1000	0	0
225	5	38	?	P	f	127.44	NA	2	24	8	56	c	n	630.44	1	100	100	0	0
225	5	39	?	P	f	212.16	NA	3	24	7	56	c	n	587.03	1	100	100	0	0
225	5	40	?	P	f	77.88	NA	2	24	9	56	c	n	362.36	1	100	100	0	0
225	5	41	?	P	f	176.59	NA	3	24	7	56	c	n	472.0	1	100	1000	0	0
225	5	42	?	N	d	-833.95	NA	8	56	2	24	c	j	687.2	1	1000	1000	0	0
225	5	43	?	N	d	133.77	NA	4	56	7	24	i	n	873.19	1	100	1000	0	0
225	5	44	?	N	d	79.83	NA	3	56	7	24	i	n	825.17	1	100	100	0	0
225	5	45	?	N	d	60.28	NA	8	56	4	24	c	j	585.82	1	100	100	0	0
225	5	46	?	N	d	-791.71	NA	9	56	3	24	c	j	673.62	1	1000	100	0	0
225	5	47	?	P	f	-787.5	NA	2	24	8	56	c	n	462.91	1	1000	1000	0	0
225	5	48	?	P	f	-848.34	NA	3	56	8	24	i	j	1213.13	1	1000	100	0	0
225	5	49	?	N	d	1054.13	NA	9	24	4	56	i	j	959.96	1	1000	1000	0	0
225	5	50	?	N	d	95.13	NA	7	24	2	56	i	j	1059.54	1	100	100	0	0
225	5	51	?	N	d	50.19	NA	9	56	4	24	c	j	838.17	1	100	1000	0	0
225	5	52	?	P	f	-665.76	NA	3	24	7	56	c	n	608.1	1	1000	100	0	0
225	5	53	?	P	f	-651.1	NA	9	56	2	24	c	j	454.3	1	1000	100	0	0
225	5	54	?	P	f	66.98	NA	4	24	8	56	c	n	429.25	1	100	1000	0	0
225	5	55	?	P	f	65.1	NA	2	56	9	24	i	j	1107.82	1	100	100	0	0
225	5	56	?	N	d	-629.62	NA	9	56	3	24	c	j	520.49	1	1000	100	0	0
225	5	57	?	N	d	-778.95	NA	4	24	8	56	c	n	641.05	1	1000	1000	0	0
225	5	58	?	N	d	-989.73	NA	3	56	8	24	i	n	678.31	1	1000	100	0	0
225	5	59	?	N	d	-726.59	NA	7	56	2	24	c	j	513.15	1	1000	1000	0	0
225	5	60	?	N	d	-758.83	NA	8	24	4	56	i	j	1751.67	1	1000	1000	0	0
225	5	61	?	P	f	-799.39	NA	9	24	2	56	i	n	395.65	1	1000	100	0	0
225	5	62	?	P	f	87.07	NA	8	24	3	56	i	n	489.55	1	100	100	0	0
225	5	63	?	P	f	293.85	NA	9	56	2	24	c	j	507.17	1	100	100	0	0
225	5	64	?	P	f	-483.11	NA	8	24	3	56	i	n	722.34	1	1000	1000	0	0
225	5	65	?	P	f	-765.98	NA	4	24	9	56	c	n	395.79	1	1000	100	0	0
225	6	1	?	N	d	260.7	NA	9	56	4	24	c	j	395.29	1	100	100	-1	0
225	6	2	?	N	d	299.79	NA	7	24	2	56	i	j	1042.28	1	100	100	0	0
225	6	3	?	N	d	127.65	NA	7	56	3	24	c	j	709.34	1	100	1000	0	0
225	6	4	?	N	d	-684.27	NA	7	56	2	24	c	j	488.67	1	1000	100	0	0
225	6	5	?	N	d	-755.26	NA	8	24	4	56	i	j	1069.13	1	1000	1000	0	0
225	6	6	?	P	f	-803.23	NA	2	56	9	24	i	n	808.62	0	1000	100	0	0
225	6	7	?	P	f	127.31	NA	7	56	4	24	c	j	1013.07	1	100	1000	0	1
225	6	8	?	N	d	64.41	NA	2	24	8	56	c	n	825.06	1	100	1000	0	0
225	6	9	?	N	d	-718.64	NA	3	24	9	56	c	n	510.11	1	1000	100	0	0
225	6	10	?	N	d	152.75	NA	8	56	2	24	c	j	577.85	1	100	100	0	0
225	6	11	?	N	d	332.96	NA	4	56	8	24	i	n	545.49	1	100	1000	0	0
225	6	12	?	P	f	75.13	NA	2	24	8	56	c	n	493.78	1	100	1000	0	0
225	6	13	?	P	f	-739.27	NA	3	56	9	24	i	j	1131.44	1	1000	100	0	0
225	6	14	?	P	f	99.61	NA	4	24	8	56	c	n	501.99	1	100	100	0	0
225	6	15	?	N	d	267.02	NA	3	24	7	56	c	n	609.91	1	100	100	0	0
225	6	16	?	P	f	-705.83	NA	7	24	4	56	i	n	523.17	1	1000	100	0	0
225	6	17	?	N	d	-753.83	NA	8	56	2	24	c	j	542.96	1	1000	100	0	0
225	6	18	?	P	f	-672.3	NA	3	24	8	56	c	n	634.44	1	1000	1000	0	0
225	6	19	?	N	d	-826.79	NA	9	24	2	56	i	j	683.07	1	1000	1000	0	0
225	6	20	?	P	f	102.58	NA	3	24	8	56	c	n	891.78	1	100	100	0	0
225	6	21	?	N	d	-729.66	NA	4	56	9	24	i	n	870.9	1	1000	100	0	0
225	6	22	?	P	f	122.88	NA	3	56	9	24	i	j	659.69	1	100	1000	0	0
225	6	23	?	N	d	-717.24	NA	2	56	9	24	i	n	1276.56	1	1000	1000	0	0
225	6	24	?	N	d	-380.76	NA	8	24	4	56	i	j	679.44	1	1000	100	0	0
225	6	25	?	N	d	-781.42	NA	2	56	7	24	i	n	818.1	1	1000	1000	0	0
225	6	26	?	P	f	-714.33	NA	3	56	9	24	i	j	818.09	1	1000	100	0	0
225	6	27	?	P	f	-578.85	NA	9	56	4	24	c	j	469.82	1	1000	1000	0	0
225	6	28	?	P	f	133.27	NA	9	24	3	56	i	n	647.23	1	100	1000	0	0
225	6	29	?	N	d	111.33	NA	2	24	9	56	c	n	540.41	1	100	1000	0	0
225	6	30	?	N	d	-787.18	NA	4	56	8	24	i	n	2151.49	1	1000	1000	0	0
225	6	31	?	N	d	-766.79	NA	7	24	2	56	i	j	517.15	1	1000	1000	0	0
225	6	32	?	P	f	-754.15	NA	9	56	3	24	c	j	417.3	1	1000	1000	0	0
225	6	33	?	P	f	75.97	NA	2	56	8	24	i	j	707.21	1	100	1000	0	0
225	6	34	?	P	f	-787.2	NA	8	56	3	24	c	j	498.38	1	1000	100	0	0
225	6	35	?	N	d	-790.43	NA	4	24	7	56	c	n	527.62	1	1000	1000	0	0
225	6	36	?	N	d	107.99	NA	3	24	7	56	c	n	447.41	1	100	1000	0	0
225	6	37	?	N	d	-745.98	NA	2	24	8	56	c	n	448.29	1	1000	1000	0	0
225	6	38	?	P	f	-756.97	NA	4	24	7	56	c	n	404.85	1	1000	100	0	0
225	6	39	?	P	f	169.12	NA	8	24	2	56	i	n	432.19	1	100	100	0	0
225	6	40	?	P	f	-148.8	NA	9	24	4	56	i	n	551.11	1	1000	100	0	0
225	6	41	?	P	f	87.09	NA	9	56	2	24	c	j	500.54	1	100	100	0	0
225	6	42	?	P	f	148.25	NA	9	24	4	56	i	n	544.05	1	100	1000	0	0
225	6	43	?	N	d	141.28	NA	7	24	2	56	i	j	1303.57	1	100	100	0	0
225	6	44	?	N	d	122.11	NA	3	56	8	24	i	n	637.28	1	100	100	0	0
225	6	45	?	N	d	111.91	NA	4	56	9	24	i	n	541.22	1	100	1000	0	0
225	6	46	?	P	f	-493.79	NA	2	24	9	56	c	n	1106.29	1	1000	100	0	0
225	6	47	?	P	f	462.6	NA	7	24	4	56	i	n	778.95	1	100	100	0	0
225	6	48	?	P	f	-725.6	NA	2	24	9	56	c	n	706.57	1	1000	100	0	0
225	6	49	?	P	f	383.36	NA	3	56	9	24	i	j	828.29	1	100	1000	0	0
225	6	50	?	N	d	107.68	NA	7	56	2	24	c	j	526.28	1	100	1000	0	0
225	6	51	?	N	d	-694.28	NA	4	24	8	56	c	n	432.19	1	1000	1000	0	0
225	6	52	?	N	d	89.44	NA	2	56	8	24	i	n	1561.35	1	100	100	0	0
225	6	53	?	N	d	-761.99	NA	7	56	4	24	c	j	691.68	1	1000	1000	0	0
225	6	54	?	N	d	-741.45	NA	9	56	3	24	c	j	554.22	1	1000	1000	0	0
225	6	55	?	P	f	-812.5	NA	2	56	8	24	i	j	877.06	1	1000	1000	0	0
225	6	56	?	P	f	83.94	NA	9	56	4	24	c	j	452.51	1	100	100	0	0
225	6	57	?	P	f	99.22	NA	2	56	7	24	i	j	468.32	1	100	100	0	0
225	6	58	?	P	f	87.5	NA	3	56	9	24	i	j	411.07	1	100	100	0	0
225	6	59	?	P	f	107.14	NA	8	56	2	24	c	j	492.41	1	100	1000	0	0
225	6	60	?	N	d	-796.69	NA	3	56	9	24	i	n	543.94	1	1000	1000	0	0
225	6	61	?	N	d	96.32	NA	9	24	4	56	i	j	711.37	1	100	1000	0	0
225	6	62	?	N	d	73.87	NA	7	56	3	24	c	j	1629.15	1	100	100	0	0
225	6	63	?	N	d	-805.3	NA	2	56	8	24	i	n	559.41	1	1000	100	0	0
225	6	64	?	N	d	-830.3	NA	7	56	3	24	c	j	612.57	1	1000	100	0	0
225	6	65	?	P	f	97.9	NA	4	24	7	56	c	n	657.76	1	100	100	0	0
