subj	block	trial	task_cue	task	choice_resp	choiceRT	choice_acc	topnum	topsize	botnum	botsize	cong	task_resp	taskRT	task_acc	RSI	CSI	altRep	E1
230	1	1	P	P	f	1051.47	1	4	24	8	56	c	n	500.71	1	1000	1000	-1	0
230	1	2	N	N	d	1335.62	0	2	56	9	24	i	n	676.71	1	100	1000	1	0
230	1	3	N	N	d	1040.48	0	8	24	3	56	i	j	750.12	1	100	1000	0	0
230	1	4	N	N	d	865.37	0	7	56	2	24	c	j	724.57	1	1000	1000	0	0
230	1	5	P	P	f	1195.05	1	8	56	4	24	c	j	664.31	1	1000	100	1	0
230	1	6	P	P	f	1247.15	1	7	24	2	56	i	n	598.63	1	100	1000	0	0
230	1	7	P	P	f	854.77	1	9	56	4	24	c	j	523.35	1	100	100	0	0
230	1	8	P	P	f	856.07	1	8	56	3	24	c	j	793.8	1	1000	1000	0	0
230	1	9	N	N	d	984.58	0	2	56	8	24	i	n	918.45	1	100	100	1	0
230	1	10	P	P	f	953.42	1	3	56	7	24	i	j	970.91	1	1000	100	1	0
230	1	11	P	P	f	1169.08	1	2	24	7	56	c	n	925.15	1	1000	100	0	0
230	1	12	P	P	f	1207.88	1	8	56	3	24	c	j	546.76	1	100	1000	0	0
230	1	13	P	P	f	1011.03	1	2	56	9	24	i	j	1451.47	1	100	100	0	0
230	1	14	N	N	f	574.83	0	4	24	7	56	c	n	2067.5	1	1000	100	1	0
230	1	15	N	N	d	1530.26	0	2	24	8	56	c	n	1094.43	1	100	100	0	0
230	1	16	N	N	d	544.89	0	7	56	4	24	c	j	609.36	1	1000	100	0	0
230	1	17	N	N	d	532.81	0	2	56	7	24	i	n	804.85	1	1000	100	0	0
230	1	18	N	N	d	584.1	0	8	24	3	56	i	j	738.84	1	1000	100	0	0
230	1	19	P	P	f	856.03	1	9	24	4	56	i	n	906.54	1	100	100	1	0
230	1	20	P	P	f	462.12	1	7	24	3	56	i	n	745.25	1	1000	100	0	0
230	1	21	P	P	f	2178.17	1	9	24	4	56	i	n	528.77	1	100	100	0	0
230	1	22	N	N	d	637.06	0	9	56	2	24	c	j	533.15	1	1000	100	1	0
230	1	23	P	P	f	956.55	1	8	24	4	56	i	n	557.11	1	1000	1000	1	0
230	1	24	N	N	d	1263.55	0	3	24	8	56	c	n	1542.77	1	100	1000	1	0
230	1	25	N	N	d	993.77	0	8	24	4	56	i	j	956.94	1	100	100	0	0
230	1	26	P	P	f	698.65	1	2	24	8	56	c	n	847.59	1	1000	1000	1	0
230	1	27	N	N	d	1337.43	0	9	56	4	24	c	j	578.12	1	100	100	1	0
230	1	28	N	N	d	985.47	0	7	56	3	24	c	j	451.83	1	100	1000	0	0
230	1	29	P	P	f	694.57	1	8	56	4	24	c	j	472.3	1	1000	1000	1	0
230	1	30	P	P	f	811.72	1	3	56	9	24	i	j	416.49	1	100	1000	0	0
230	1	31	P	P	f	540.31	1	7	56	4	24	c	j	525.65	1	1000	100	0	0
230	1	32	P	P	f	453.41	1	3	24	7	56	c	n	409.42	1	1000	1000	0	0
230	1	33	N	N	d	860.19	0	8	56	2	24	c	j	696.46	1	100	1000	1	0
230	1	34	N	N	d	321.99	0	4	56	7	24	i	n	591.38	1	1000	1000	0	0
230	1	35	P	P	f	825.06	1	3	24	8	56	c	n	570.38	1	100	1000	1	0
230	1	36	P	P	f	674.67	1	4	24	7	56	c	n	424.25	1	100	1000	0	0
230	1	37	N	N	f	812.66	0	8	24	2	56	i	j	721.11	1	1000	1000	1	0
230	1	38	P	P	f	820.76	1	4	24	7	56	c	n	1894.95	1	1000	100	1	0
230	1	39	N	N	d	556.09	0	8	24	3	56	i	j	637.7	1	1000	100	1	0
230	1	40	P	P	f	696.85	1	8	56	2	24	c	j	824.39	1	100	100	1	0
230	1	41	P	P	f	746.11	1	4	24	7	56	c	n	508.56	1	100	100	0	0
230	1	42	P	P	f	633.27	1	3	56	7	24	i	j	411.39	1	1000	100	0	0
230	1	43	P	P	f	501.29	1	2	56	9	24	i	j	429.28	1	1000	1000	0	0
230	1	44	N	N	d	1055.34	0	9	24	4	56	i	j	375.59	1	100	1000	1	0
230	1	45	N	N	d	600.96	0	2	24	9	56	c	n	586.2	1	100	1000	0	0
230	1	46	P	P	d	696.64	1	4	56	9	24	i	j	1982.57	1	100	100	1	0
230	1	47	N	N	d	909.45	0	2	56	8	24	i	n	1516.46	1	1000	1000	1	0
230	1	48	P	P	f	653.18	1	4	56	7	24	i	j	576.19	1	100	1000	1	0
230	1	49	N	N	d	758.03	0	2	56	7	24	i	n	583.85	1	1000	100	1	0
230	1	50	N	N	d	505.92	0	4	24	8	56	c	n	727.6	1	1000	100	0	0
230	1	51	N	N	d	511.83	0	3	24	7	56	c	n	641.57	1	1000	1000	0	0
230	1	52	P	P	f	678.65	1	4	24	8	56	c	n	1093.36	1	100	100	1	0
230	1	53	N	N	d	1332.41	0	2	24	8	56	c	n	669.22	1	100	100	1	0
230	1	54	N	N	d	628.06	0	3	56	7	24	i	n	753.9	1	100	1000	0	0
230	1	55	N	N	d	707.74	0	2	56	8	24	i	n	617.26	1	100	100	0	0
230	1	56	P	P	f	991.27	1	7	24	3	56	i	j	558.46	0	100	1000	1	0
230	1	57	N	N	d	914.65	0	4	24	8	56	c	n	779.86	1	1000	1000	1	1
230	1	58	P	P	f	829.18	1	2	56	7	24	i	j	383.32	1	1000	1000	1	0
230	1	59	P	P	f	416.66	1	8	24	3	56	i	j	467.6	0	1000	1000	0	0
230	1	60	N	N	d	810.24	0	7	56	4	24	c	j	404.62	1	1000	1000	1	1
230	1	61	N	N	d	618.74	0	8	56	3	24	c	j	577.55	1	100	100	0	0
230	1	62	N	N	d	578.68	0	9	24	2	56	i	j	339.08	1	1000	1000	0	0
230	1	63	P	P	f	765.57	1	7	24	4	56	i	j	579.14	0	1000	100	1	0
230	1	64	N	N	d	1110.4	0	8	24	3	56	i	j	810.14	1	100	100	1	1
230	1	65	P	P	f	634.79	1	8	56	2	24	c	j	350.96	1	100	1000	1	0
230	2	1	P	P	f	798.14	1	2	24	7	56	c	n	532.85	1	1000	1000	-1	0
230	2	2	P	P	f	1057.9	1	7	56	3	24	c	j	491.51	1	100	1000	0	0
230	2	3	P	P	f	880.52	1	2	24	9	56	c	n	576.43	1	1000	1000	0	0
230	2	4	N	N	d	1153.21	0	8	56	3	24	c	j	396.44	1	100	1000	1	0
230	2	5	P	P	f	796.34	1	8	56	4	24	c	j	563.63	1	100	1000	1	0
230	2	6	P	P	f	1009.88	1	7	56	2	24	c	j	605.9	1	1000	1000	0	0
230	2	7	N	N	d	699.16	0	8	24	4	56	i	j	500.13	1	100	1000	1	0
230	2	8	N	N	d	776.82	0	8	56	2	24	c	j	370.69	1	100	1000	0	0
230	2	9	P	P	f	628.96	1	4	24	9	56	c	n	867.6	1	1000	1000	1	0
230	2	10	N	N	d	338.1	0	2	24	7	56	c	n	928.77	1	1000	100	1	0
230	2	11	P	P	f	817.0	1	3	56	8	24	i	j	511.29	1	1000	1000	1	0
230	2	12	P	P	f	704.51	1	9	24	2	56	i	j	624.68	0	100	100	0	0
230	2	13	P	P	f	1184.43	1	3	56	9	24	i	j	581.38	1	100	100	0	1
230	2	14	P	P	f	470.89	1	4	24	7	56	c	n	556.18	1	100	1000	0	0
230	2	15	N	N	d	372.37	0	8	56	2	24	c	j	434.16	1	1000	100	1	0
230	2	16	N	N	d	423.37	0	8	56	3	24	c	j	356.51	1	1000	100	0	0
230	2	17	N	N	d	327.61	0	7	24	2	56	i	j	664.05	1	1000	1000	0	0
230	2	18	N	N	d	594.73	0	4	56	7	24	i	n	641.84	1	100	1000	0	0
230	2	19	N	N	d	543.89	0	2	24	8	56	c	n	799.57	1	100	100	0	0
230	2	20	P	P	f	348.45	1	9	24	3	56	i	j	590.13	0	1000	100	1	0
230	2	21	N	N	d	642.93	0	2	56	8	24	i	n	898.29	1	1000	1000	1	1
230	2	22	N	N	d	931.49	0	7	24	3	56	i	j	533.75	1	1000	100	0	0
230	2	23	N	N	d	439.72	0	9	24	2	56	i	j	479.15	1	100	1000	0	0
230	2	24	P	P	f	446.58	1	8	56	3	24	c	j	419.86	1	1000	100	1	0
230	2	25	N	N	f	471.5	0	9	56	2	24	c	j	590.76	1	100	100	1	0
230	2	26	P	P	f	317.65	1	3	24	7	56	c	n	1599.26	1	100	1000	1	0
230	2	27	P	P	f	640.21	1	2	24	7	56	c	n	749.69	1	1000	100	0	0
230	2	28	P	P	f	394.8	1	7	56	4	24	c	j	339.2	1	100	100	0	0
230	2	29	N	N	d	743.53	0	2	24	8	56	c	n	1068.51	1	100	1000	1	0
230	2	30	P	P	f	890.66	1	4	56	7	24	i	j	1178.43	1	100	100	1	0
230	2	31	P	P	f	760.48	1	9	56	2	24	c	j	854.57	1	1000	100	0	0
230	2	32	N	N	d	516.47	0	4	56	9	24	i	n	1153.5	1	1000	100	1	0
230	2	33	P	P	f	729.57	1	2	24	7	56	c	n	1048.72	1	1000	100	1	0
230	2	34	N	N	d	379.95	0	4	24	7	56	c	n	1251.69	1	1000	1000	1	0
230	2	35	P	P	f	535.97	1	9	24	2	56	i	n	1409.58	1	1000	1000	1	0
230	2	36	P	P	f	668.12	1	4	56	9	24	i	j	1367.89	1	100	1000	0	0
230	2	37	P	P	f	630.01	1	9	24	3	56	i	n	1050.39	1	1000	100	0	0
230	2	38	N	N	d	675.03	0	9	24	4	56	i	j	1437.88	1	1000	100	1	0
230	2	39	N	N	d	460.73	0	2	24	8	56	c	n	1259.8	1	100	1000	0	0
230	2	40	P	P	f	385.78	1	8	56	3	24	c	j	396.68	1	1000	1000	1	0
230	2	41	P	P	f	797.12	1	4	24	8	56	c	n	1015.5	1	100	100	0	0
230	2	42	P	P	f	798.2	1	7	24	2	56	i	n	1196.58	1	100	1000	0	0
230	2	43	N	N	d	693.95	0	9	24	4	56	i	j	1013.82	1	100	100	1	0
230	2	44	N	N	d	997.47	0	3	24	7	56	c	n	1083.33	1	1000	1000	0	0
230	2	45	P	P	f	900.53	1	4	56	9	24	i	j	1276.36	1	100	1000	1	0
230	2	46	N	N	d	983.02	0	9	56	3	24	c	j	398.96	1	1000	1000	1	0
230	2	47	N	N	d	887.29	0	7	56	4	24	c	j	735.45	1	1000	1000	0	0
230	2	48	P	P	f	751.6	1	3	24	9	56	c	n	1740.08	1	100	100	1	0
230	2	49	N	N	d	923.55	0	2	56	8	24	i	n	1120.58	1	100	1000	1	0
230	2	50	N	N	d	628.81	0	8	56	3	24	c	j	587.75	1	100	100	0	0
230	2	51	P	P	f	3453.11	1	2	56	7	24	i	j	996.07	1	1000	100	1	0
230	2	52	P	P	f	671.35	1	7	24	4	56	i	n	1152.09	1	1000	1000	0	0
230	2	53	P	P	f	491.19	1	2	56	9	24	i	j	694.3	1	1000	1000	0	0
230	2	54	N	N	d	625.54	0	3	24	8	56	c	n	785.98	1	100	100	1	0
230	2	55	P	P	f	560.96	1	9	24	2	56	i	n	505.71	1	100	1000	1	0
230	2	56	N	N	d	597.82	0	8	24	3	56	i	j	947.54	1	1000	1000	1	0
230	2	57	N	N	d	1155.48	0	2	56	7	24	i	n	1435.7	1	1000	100	0	0
230	2	58	N	N	d	1830.78	0	4	56	8	24	i	j	677.62	0	100	100	0	0
230	2	59	P	P	f	929.25	1	9	24	2	56	i	n	1239.39	1	100	100	1	1
230	2	60	N	N	d	721.03	0	3	56	7	24	i	n	916.53	1	100	100	1	0
230	2	61	N	N	d	528.57	0	2	24	9	56	c	n	823.33	1	1000	100	0	0
230	2	62	N	N	d	462.75	0	7	24	4	56	i	j	689.1	1	100	100	0	0
230	2	63	N	N	d	608.22	0	2	56	9	24	i	n	559.25	1	1000	1000	0	0
230	2	64	P	P	f	905.13	1	8	56	4	24	c	j	635.64	1	100	100	1	0
230	2	65	P	P	f	514.17	1	3	56	7	24	i	j	1197.25	1	1000	100	0	0
230	3	1	P	P	f	1004.88	1	2	24	7	56	c	n	1164.85	1	1000	100	-1	0
230	3	2	N	N	d	762.64	0	8	56	3	24	c	j	619.97	1	1000	1000	1	0
230	3	3	P	P	f	932.25	1	4	24	9	56	c	n	1747.47	1	1000	1000	1	0
230	3	4	N	N	d	975.99	0	9	24	3	56	i	j	470.28	1	100	1000	1	0
230	3	5	N	N	d	584.31	0	8	56	2	24	c	j	485.35	1	100	1000	0	0
230	3	6	P	P	d	493.24	1	3	24	7	56	c	n	1472.99	1	100	100	1	0
230	3	7	P	P	f	777.48	1	2	56	7	24	i	j	877.15	1	100	1000	0	0
230	3	8	N	N	d	410.16	0	4	24	8	56	c	n	865.5	1	1000	1000	1	0
230	3	9	N	N	d	616.72	0	8	24	3	56	i	j	1873.72	1	1000	1000	0	0
230	3	10	N	N	d	755.05	0	4	56	8	24	i	n	849.74	1	100	100	0	0
230	3	11	N	N	d	685.56	0	3	24	8	56	c	n	531.82	1	1000	1000	0	0
230	3	12	P	P	f	741.17	1	7	24	2	56	i	j	975.08	0	1000	1000	1	0
230	3	13	P	P	f	339.94	1	3	56	7	24	i	j	648.67	1	1000	1000	0	1
230	3	14	N	N	d	606.77	0	9	56	4	24	c	j	773.15	1	100	100	1	0
230	3	15	N	N	d	383.13	0	9	56	3	24	c	j	434.62	1	1000	100	0	0
230	3	16	P	P	f	502.77	1	9	56	2	24	c	j	430.43	1	1000	1000	1	0
230	3	17	P	P	f	1044.1	1	9	24	4	56	i	n	910.99	1	100	1000	0	0
230	3	18	P	P	f	589.72	1	3	24	8	56	c	n	694.51	1	1000	100	0	0
230	3	19	P	P	f	513.32	1	4	24	7	56	c	n	699.39	1	100	1000	0	0
230	3	20	N	N	f	483.41	0	2	56	9	24	i	n	872.2	1	1000	1000	1	0
230	3	21	N	N	d	719.37	0	4	56	8	24	i	j	1679.69	0	1000	100	0	0
230	3	22	P	P	f	647.85	1	8	56	3	24	c	j	578.56	1	1000	100	1	1
230	3	23	N	N	d	591.99	0	2	24	7	56	c	n	763.14	1	1000	100	1	0
230	3	24	N	N	d	277.46	0	4	24	9	56	c	n	631.87	1	1000	100	0	0
230	3	25	P	P	f	741.0	1	8	24	3	56	i	n	1144.91	1	1000	100	1	0
230	3	26	P	P	f	568.01	1	2	56	9	24	i	j	1555.32	1	1000	100	0	0
230	3	27	N	N	d	684.75	0	7	24	3	56	i	j	372.77	1	1000	1000	1	0
230	3	28	P	P	f	744.86	1	9	24	2	56	i	j	641.9	0	100	100	1	0
230	3	29	P	P	f	464.67	1	8	56	4	24	c	j	500.34	1	1000	100	0	1
230	3	30	N	N	d	652.84	0	9	24	2	56	i	j	869.87	1	1000	100	1	0
230	3	31	N	N	d	730.01	0	3	24	7	56	c	n	530.49	1	100	1000	0	0
230	3	32	N	N	d	694.96	0	2	56	9	24	i	n	709.24	1	1000	1000	0	0
230	3	33	P	P	f	1049.68	1	4	24	9	56	c	n	636.44	1	1000	100	1	0
230	3	34	P	P	f	493.53	1	8	56	2	24	c	j	506.0	1	100	1000	0	0
230	3	35	P	P	f	800.05	1	7	24	3	56	i	j	524.1	0	100	100	0	0
230	3	36	N	N	d	1229.58	0	4	24	8	56	c	n	1002.89	1	100	100	1	1
230	3	37	P	P	f	504.44	1	2	24	8	56	c	n	522.24	1	100	1000	1	0
230	3	38	N	N	d	563.55	0	8	56	4	24	c	j	790.33	1	1000	100	1	0
230	3	39	N	N	d	587.19	0	3	24	7	56	c	n	635.23	1	100	100	0	0
230	3	40	N	N	d	504.19	0	8	56	2	24	c	j	398.6	1	100	100	0	0
230	3	41	N	N	d	651.32	0	9	56	3	24	c	j	485.26	1	1000	1000	0	0
230	3	42	N	N	d	537.93	0	8	24	4	56	i	j	510.94	1	100	1000	0	0
230	3	43	P	P	f	703.67	1	2	56	7	24	i	j	352.86	1	1000	1000	1	0
230	3	44	P	P	f	301.16	1	3	24	8	56	c	n	496.16	1	1000	1000	0	0
230	3	45	N	N	f	583.02	0	4	56	8	24	i	n	668.97	1	100	1000	1	0
230	3	46	N	N	f	976.07	0	8	24	3	56	i	j	1730.65	1	1000	100	0	0
230	3	47	P	P	f	650.5	1	8	56	4	24	c	j	1075.01	1	100	100	1	0
230	3	48	P	P	f	531.77	1	7	24	2	56	i	j	577.55	0	1000	1000	0	0
230	3	49	N	N	d	1008.45	0	9	24	3	56	i	j	661.32	1	100	100	1	1
230	3	50	P	P	f	625.72	1	7	56	4	24	c	j	391.27	1	100	1000	1	0
230	3	51	P	P	f	566.11	1	3	56	9	24	i	j	524.32	1	100	100	0	0
230	3	52	P	P	f	598.97	1	8	56	4	24	c	j	399.7	1	100	100	0	0
230	3	53	N	N	f	372.38	0	3	24	8	56	c	n	1243.55	1	100	1000	1	0
230	3	54	P	P	f	622.95	1	2	56	9	24	i	j	558.44	1	1000	100	1	0
230	3	55	P	P	f	1094.23	1	8	24	3	56	i	j	574.57	0	1000	100	0	0
230	3	56	P	P	f	734.32	1	4	24	7	56	c	n	643.47	1	100	100	0	1
230	3	57	N	N	d	624.79	0	2	56	8	24	i	n	1022.05	1	100	100	1	0
230	3	58	P	P	f	607.95	1	3	56	8	24	i	j	413.06	1	100	1000	1	0
230	3	59	P	P	f	513.61	1	9	56	4	24	c	j	453.33	1	1000	1000	0	0
230	3	60	N	N	d	910.44	0	9	56	3	24	c	j	336.21	1	100	1000	1	0
230	3	61	N	N	d	549.88	0	8	24	2	56	i	j	546.83	1	100	100	0	0
230	3	62	N	N	d	559.69	0	4	56	8	24	i	n	1113.36	1	100	1000	0	0
230	3	63	P	P	f	592.8	1	3	56	8	24	i	j	573.45	1	100	100	1	0
230	3	64	N	N	d	518.68	0	4	56	9	24	i	j	724.78	0	1000	100	1	0
230	3	65	P	P	f	632.16	1	7	24	3	56	i	n	567.37	1	100	1000	1	1
230	4	1	P	P	f	1267.7	1	9	56	2	24	c	j	760.83	1	1000	100	-1	0
230	4	2	N	N	d	657.37	0	3	56	8	24	i	n	1133.48	1	1000	100	1	0
230	4	3	N	N	d	494.51	0	9	24	4	56	i	j	991.82	1	1000	100	0	0
230	4	4	P	P	f	654.41	1	2	56	9	24	i	j	904.66	1	1000	1000	1	0
230	4	5	N	N	d	763.73	0	7	56	4	24	c	j	757.88	1	1000	100	1	0
230	4	6	N	N	d	598.49	0	2	56	9	24	i	n	465.85	1	1000	1000	0	0
230	4	7	P	P	f	764.99	1	9	24	3	56	i	n	1073.37	1	100	1000	1	0
230	4	8	P	P	f	484.63	1	4	24	7	56	c	n	676.91	1	100	1000	0	0
230	4	9	N	N	d	725.57	0	2	24	8	56	c	n	1259.07	1	100	100	1	0
230	4	10	N	N	d	869.64	0	3	24	8	56	c	n	746.37	1	1000	100	0	0
230	4	11	P	P	f	660.7	1	9	56	4	24	c	j	1113.18	1	100	1000	1	0
230	4	12	N	N	d	480.21	0	7	24	2	56	i	j	835.65	1	1000	100	1	0
230	4	13	N	N	d	537.04	0	9	24	3	56	i	j	499.1	1	1000	1000	0	0
230	4	14	N	N	d	596.09	0	2	24	8	56	c	n	946.88	1	100	1000	0	0
230	4	15	P	P	f	874.98	1	7	24	4	56	i	n	761.48	1	1000	1000	1	0
230	4	16	P	P	f	614.65	1	7	24	3	56	i	n	814.39	1	100	100	0	0
230	4	17	N	N	d	820.24	0	7	24	2	56	i	j	452.94	1	100	1000	1	0
230	4	18	N	N	d	527.33	0	3	24	9	56	c	n	934.45	1	100	100	0	0
230	4	19	P	P	f	598.85	1	4	56	8	24	i	j	1184.92	1	100	1000	1	0
230	4	20	P	P	f	411.71	1	2	56	9	24	i	j	957.25	1	1000	1000	0	0
230	4	21	P	P	f	608.88	1	4	24	8	56	c	n	1809.55	1	1000	1000	0	0
230	4	22	N	N	d	352.31	0	9	56	2	24	c	j	1093.81	1	1000	1000	1	0
230	4	23	N	N	d	511.92	0	4	56	8	24	i	n	1125.56	1	100	1000	0	0
230	4	24	P	P	f	373.91	1	8	24	2	56	i	j	898.35	0	1000	100	1	0
230	4	25	N	N	f	875.71	0	3	56	8	24	i	n	965.82	1	100	1000	1	1
230	4	26	P	P	f	595.37	1	4	24	9	56	c	n	1205.97	1	100	100	1	0
230	4	27	N	N	d	596.09	0	3	56	7	24	i	n	1194.63	1	1000	1000	1	0
230	4	28	P	P	f	568.96	1	7	24	2	56	i	n	1184.37	1	100	100	1	0
230	4	29	N	N	d	1036.06	0	3	24	7	56	c	n	937.41	1	1000	100	1	0
230	4	30	N	N	d	672.98	0	7	56	4	24	c	j	974.77	1	1000	100	0	0
230	4	31	N	N	d	519.58	0	9	56	3	24	c	j	340.97	1	1000	1000	0	0
230	4	32	P	P	f	734.59	1	7	56	2	24	c	j	857.95	1	100	100	1	0
230	4	33	P	P	f	327.95	1	3	56	7	24	i	j	553.05	1	1000	100	0	0
230	4	34	P	P	f	561.27	1	2	56	7	24	i	j	721.83	1	100	100	0	0
230	4	35	P	P	f	427.29	1	7	56	4	24	c	j	530.07	1	100	100	0	0
230	4	36	P	P	f	581.43	1	8	56	2	24	c	j	611.99	1	1000	100	0	0
230	4	37	N	N	d	840.81	0	4	56	8	24	i	n	806.61	1	100	100	1	0
230	4	38	P	P	f	642.03	1	2	24	7	56	c	n	977.84	1	1000	100	1	0
230	4	39	N	N	d	928.02	0	3	24	7	56	c	n	776.04	1	1000	1000	1	0
230	4	40	N	N	d	624.19	0	8	56	2	24	c	n	288.36	0	100	1000	0	0
230	4	41	P	P	f	484.01	1	7	56	3	24	c	j	793.66	1	1000	1000	1	1
230	4	42	N	N	d	647.65	0	8	56	2	24	c	j	328.84	1	100	1000	1	0
230	4	43	P	P	f	693.75	1	4	56	8	24	i	j	697.47	1	1000	100	1	0
230	4	44	P	P	f	549.49	1	3	24	7	56	c	n	535.41	1	100	100	0	0
230	4	45	P	P	f	446.37	1	7	24	2	56	i	n	610.94	1	1000	100	0	0
230	4	46	N	N	d	612.91	0	9	24	4	56	i	j	361.91	1	1000	1000	1	0
230	4	47	P	P	f	681.33	1	7	56	2	24	c	j	567.3	1	1000	100	1	0
230	4	48	N	N	d	1081.76	0	7	56	3	24	c	j	466.44	1	100	100	1	0
230	4	49	P	P	f	393.91	1	4	24	7	56	c	n	393.3	1	1000	1000	1	0
230	4	50	N	N	d	579.3	0	2	24	7	56	c	n	507.64	1	100	1000	1	0
230	4	51	N	N	d	520.81	0	4	56	9	24	i	j	623.96	0	100	100	0	0
230	4	52	N	N	d	611.11	0	7	24	3	56	i	j	483.5	1	100	1000	0	1
230	4	53	N	N	d	372.42	0	8	56	2	24	c	j	468.76	1	100	100	0	0
230	4	54	N	N	d	413.36	0	7	24	4	56	i	j	622.55	1	100	100	0	0
230	4	55	N	N	d	507.36	0	2	24	8	56	c	n	1402.72	1	1000	1000	0	0
230	4	56	P	P	f	1077.59	1	3	24	8	56	c	n	775.69	1	100	1000	1	0
230	4	57	P	P	f	340.91	1	8	24	4	56	i	j	615.06	0	1000	1000	0	0
230	4	58	N	N	f	630.19	0	8	24	2	56	i	n	1926.82	0	100	100	1	1
230	4	59	N	N	d	712.18	0	3	56	8	24	i	n	800.82	1	1000	100	0	1
230	4	60	P	P	f	597.7	1	4	56	9	24	i	j	443.0	1	100	100	1	0
230	4	61	P	P	f	511.02	1	2	24	8	56	c	n	754.5	1	1000	100	0	0
230	4	62	P	P	f	561.95	1	9	56	4	24	c	j	305.1	1	100	1000	0	0
230	4	63	P	P	f	562.89	1	2	56	9	24	i	j	700.58	1	100	1000	0	0
230	4	64	P	P	f	528.43	1	7	56	3	24	c	j	450.95	1	1000	1000	0	0
230	4	65	P	P	f	559.28	1	9	24	2	56	i	j	426.19	0	100	1000	0	0
230	5	1	P	P	f	3013.42	1	4	24	8	56	c	n	1485.17	1	1000	1000	-1	0
230	5	2	P	P	f	596.89	1	8	56	2	24	c	j	454.03	1	1000	100	0	0
230	5	3	P	P	f	392.77	1	8	56	3	24	c	j	360.14	1	100	100	0	0
230	5	4	N	N	d	580.19	0	4	56	9	24	i	n	981.94	1	100	100	1	0
230	5	5	P	P	f	662.3	1	2	24	9	56	c	n	777.21	1	1000	1000	1	0
230	5	6	P	P	f	656.8	1	9	24	3	56	i	n	536.52	1	1000	1000	0	0
230	5	7	N	N	d	593.89	0	2	24	9	56	c	n	1721.89	1	1000	100	1	0
230	5	8	P	P	f	628.95	1	4	56	8	24	i	j	1599.29	1	1000	100	1	0
230	5	9	P	P	f	550.42	1	2	56	8	24	i	j	524.94	1	100	100	0	0
230	5	10	N	N	d	531.2	0	4	24	7	56	c	n	871.06	1	100	1000	1	0
230	5	11	P	P	f	652.34	1	9	56	2	24	c	j	711.38	1	100	1000	1	0
230	5	12	P	P	f	1266.23	1	4	56	9	24	i	j	1297.7	1	1000	1000	0	0
230	5	13	N	N	d	515.03	0	7	56	2	24	c	j	1354.52	1	1000	1000	1	0
230	5	14	P	P	f	899.29	1	4	24	7	56	c	n	960.48	1	100	1000	1	0
230	5	15	P	P	f	579.62	1	3	24	9	56	c	n	755.95	1	100	1000	0	0
230	5	16	P	P	f	2295.95	1	8	56	2	24	c	j	438.97	1	100	1000	0	0
230	5	17	N	N	d	551.27	0	3	56	7	24	i	n	968.89	1	1000	1000	1	0
230	5	18	P	P	f	660.42	1	8	24	4	56	i	n	1282.15	1	1000	1000	1	0
230	5	19	P	P	f	1156.56	1	2	56	8	24	i	j	716.4	1	1000	100	0	0
230	5	20	N	N	d	799.37	0	7	56	4	24	c	j	578.55	1	100	1000	1	0
230	5	21	N	N	d	513.86	0	3	24	9	56	c	n	656.16	1	100	100	0	0
230	5	22	P	P	f	957.26	1	8	56	4	24	c	j	1234.51	1	1000	100	1	0
230	5	23	P	P	f	382.58	1	3	24	9	56	c	n	724.91	1	1000	1000	0	0
230	5	24	N	N	d	780.05	0	9	56	4	24	c	j	1634.44	1	100	100	1	0
230	5	25	N	N	d	517.52	0	9	24	2	56	i	j	655.61	1	1000	100	0	0
230	5	26	N	N	d	359.1	0	7	24	3	56	i	j	1281.49	1	1000	1000	0	0
230	5	27	N	N	d	560.41	0	4	56	9	24	i	n	1236.43	1	1000	1000	0	0
230	5	28	N	N	d	707.16	0	3	24	9	56	c	n	524.3	1	100	1000	0	0
230	5	29	N	N	d	711.95	0	8	56	2	24	c	j	1092.7	1	100	1000	0	0
230	5	30	P	P	f	644.98	1	9	24	3	56	i	n	710.41	1	100	100	1	0
230	5	31	N	N	d	477.92	0	8	24	4	56	i	j	472.71	1	1000	1000	1	0
230	5	32	N	N	d	1372.74	0	3	56	7	24	i	n	1030.72	1	1000	100	0	0
230	5	33	P	P	f	639.7	1	7	24	4	56	i	n	500.78	1	100	1000	1	0
230	5	34	P	P	f	609.05	1	9	56	2	24	c	j	301.09	1	1000	1000	0	0
230	5	35	N	N	d	581.64	0	7	24	3	56	i	j	522.19	1	1000	100	1	0
230	5	36	P	P	f	485.02	1	2	56	7	24	i	j	1421.07	1	100	100	1	0
230	5	37	N	N	d	717.76	0	8	56	3	24	c	n	930.35	0	1000	100	1	0
230	5	38	P	P	f	536.64	1	8	56	4	24	c	j	318.01	1	1000	1000	1	1
230	5	39	N	N	d	559.93	0	7	24	2	56	i	j	585.35	1	100	100	1	0
230	5	40	N	N	d	592.12	0	8	56	3	24	c	j	573.45	1	1000	100	0	0
230	5	41	N	N	d	519.68	0	8	56	2	24	c	j	398.02	1	100	100	0	0
230	5	42	N	N	d	426.19	0	3	56	8	24	i	n	550.83	1	100	100	0	0
230	5	43	P	P	f	548.7	1	9	56	2	24	c	j	421.51	1	100	100	1	0
230	5	44	P	P	f	415.26	1	3	24	7	56	c	n	725.33	1	1000	100	0	0
230	5	45	N	N	d	937.11	0	2	56	8	24	i	n	1321.24	1	1000	100	1	0
230	5	46	N	N	d	616.71	0	4	24	9	56	c	n	682.09	1	1000	100	0	0
230	5	47	N	N	d	584.06	0	7	24	2	56	i	j	980.47	1	100	1000	0	0
230	5	48	N	N	d	594.04	0	7	24	3	56	i	j	551.06	1	100	100	0	0
230	5	49	P	P	f	761.64	1	2	56	9	24	i	j	337.75	1	1000	1000	1	0
230	5	50	N	N	d	619.38	0	3	56	8	24	i	n	565.4	1	100	1000	1	0
230	5	51	N	N	d	516.38	0	2	56	7	24	i	n	557.26	1	100	1000	0	0
230	5	52	N	N	d	407.37	0	3	24	7	56	c	n	805.99	1	1000	1000	0	0
230	5	53	P	P	f	654.63	1	4	24	7	56	c	n	1748.72	1	100	100	1	0
230	5	54	P	P	f	594.97	1	2	56	9	24	i	j	462.27	1	100	1000	0	0
230	5	55	P	P	f	683.15	1	9	24	3	56	i	n	905.5	1	100	1000	0	0
230	5	56	N	N	d	720.56	0	8	24	2	56	i	j	645.09	1	100	1000	1	0
230	5	57	P	P	f	951.63	1	4	56	7	24	i	j	654.23	1	100	1000	1	0
230	5	58	N	N	d	443.64	0	2	24	8	56	c	n	955.66	1	1000	1000	1	0
230	5	59	P	P	f	416.41	1	7	24	4	56	i	j	648.26	0	1000	100	1	0
230	5	60	P	P	f	639.73	1	2	24	7	56	c	n	1920.4	1	100	100	0	1
230	5	61	P	P	f	616.75	1	7	24	3	56	i	n	703.69	1	100	100	0	0
230	5	62	N	N	d	617.8	0	4	24	7	56	c	n	689.15	1	100	100	1	0
230	5	63	N	N	d	607.22	0	9	56	2	24	c	j	1616.97	1	1000	1000	0	0
230	5	64	P	P	d	618.02	1	4	24	9	56	c	n	2477.94	1	1000	100	1	0
230	5	65	P	P	f	745.91	1	8	24	3	56	i	j	4300.53	0	1000	100	0	0
230	6	1	N	N	d	4734.9	0	9	56	4	24	c	j	1700.57	1	100	1000	-1	0
230	6	2	P	P	d	652.01	1	9	24	2	56	i	n	3186.82	1	1000	100	1	0
230	6	3	P	P	f	1369.61	1	4	56	9	24	i	j	588.32	1	100	100	0	0
230	6	4	N	N	d	1182.14	0	9	56	2	24	c	j	419.64	1	100	1000	1	0
230	6	5	N	N	d	640.01	0	9	24	4	56	i	j	514.03	1	100	100	0	0
230	6	6	P	P	d	458.99	1	2	56	9	24	i	n	910.47	0	1000	100	1	0
230	6	7	N	N	d	633.96	0	3	24	7	56	c	n	1301.88	1	1000	100	1	1
230	6	8	P	P	f	484.05	1	2	24	7	56	c	n	867.82	1	1000	1000	1	0
230	6	9	P	P	f	710.25	1	4	24	9	56	c	n	955.96	1	100	1000	0	0
230	6	10	P	P	f	753.23	1	2	24	8	56	c	n	543.89	1	1000	1000	0	0
230	6	11	N	N	d	804.72	0	7	24	3	56	i	j	578.55	1	1000	100	1	0
230	6	12	P	P	f	670.28	1	7	56	4	24	c	j	1118.44	1	1000	100	1	0
230	6	13	P	P	f	604.67	1	7	24	3	56	i	n	737.15	1	100	100	0	0
230	6	14	N	N	d	785.86	0	4	56	9	24	i	j	2984.54	0	1000	100	1	0
230	6	15	P	P	f	787.05	1	9	24	3	56	i	n	961.2	1	100	100	1	1
230	6	16	P	P	f	1040.7	1	4	56	8	24	i	j	727.54	1	1000	100	0	0
230	6	17	P	P	f	646.66	1	7	24	2	56	i	n	779.36	1	1000	100	0	0
230	6	18	P	P	f	582.98	1	3	56	9	24	i	j	3424.65	1	100	1000	0	0
230	6	19	N	N	d	540.15	0	8	56	4	24	c	j	918.53	1	1000	100	1	0
230	6	20	N	N	d	503.58	0	3	24	9	56	c	n	1095.47	1	100	1000	0	0
230	6	21	N	N	d	648.88	0	9	56	2	24	c	j	802.58	1	100	1000	0	0
230	6	22	P	P	f	1223.7	1	3	24	8	56	c	n	1020.12	1	1000	100	1	0
230	6	23	P	P	f	549.06	1	8	56	4	24	c	j	814.94	1	1000	100	0	0
230	6	24	P	P	f	482.81	1	7	56	2	24	c	j	580.46	1	100	100	0	0
230	6	25	P	P	f	660.87	1	4	56	8	24	i	j	1046.3	1	1000	1000	0	0
230	6	26	P	P	f	580.14	1	2	24	8	56	c	n	645.45	1	1000	100	0	0
230	6	27	N	N	d	829.35	0	3	56	7	24	i	n	878.8	1	100	100	1	0
230	6	28	P	P	f	569.51	1	8	56	2	24	c	j	1027.39	1	1000	1000	1	0
230	6	29	N	N	d	1501.14	0	3	24	7	56	c	n	680.32	1	1000	1000	1	0
230	6	30	N	N	d	683.21	0	4	24	9	56	c	n	2131.79	1	1000	1000	0	0
230	6	31	P	P	f	650.84	1	3	24	9	56	c	n	1265.91	1	100	1000	1	0
230	6	32	N	N	d	608.42	0	8	56	4	24	c	j	436.4	1	100	100	1	0
230	6	33	N	N	d	493.67	0	7	56	3	24	c	j	394.46	1	100	100	0	0
230	6	34	N	N	d	411.51	0	4	56	9	24	i	n	540.3	1	100	1000	0	0
230	6	35	N	N	d	542.36	0	8	56	3	24	c	j	649.84	1	1000	1000	0	0
230	6	36	P	P	f	2643.7	1	4	56	8	24	i	j	323.96	1	1000	1000	1	0
230	6	37	N	N	d	722.81	0	8	24	3	56	i	j	883.77	1	100	1000	1	0
230	6	38	P	P	f	856.74	1	9	56	2	24	c	j	433.95	1	100	1000	1	0
230	6	39	N	N	d	586.38	0	4	56	8	24	i	n	622.13	1	100	1000	1	0
230	6	40	N	N	d	674.96	0	2	56	8	24	i	n	931.85	1	1000	1000	0	0
230	6	41	P	P	f	538.59	1	4	56	7	24	i	j	1120.9	1	100	100	1	0
230	6	42	N	N	d	560.84	0	2	56	9	24	i	n	1439.17	1	1000	1000	1	0
230	6	43	N	N	d	675.28	0	3	56	8	24	i	n	910.6	1	100	100	0	0
230	6	44	N	N	d	590.81	0	8	24	4	56	i	n	1560.12	0	100	1000	0	0
230	6	45	N	N	d	1466.69	0	9	24	2	56	i	j	814.16	1	1000	1000	0	1
230	6	46	N	N	d	594.16	0	8	24	3	56	i	j	1092.03	1	1000	100	0	0
230	6	47	P	P	f	813.19	1	9	56	4	24	c	j	1341.57	1	100	100	1	0
230	6	48	N	N	d	734.88	0	9	24	3	56	i	j	468.91	1	100	100	1	0
230	6	49	P	P	f	594.38	1	2	56	8	24	i	j	809.68	1	100	1000	1	0
230	6	50	N	N	d	567.38	0	3	24	7	56	c	n	1093.52	1	100	100	1	0
230	6	51	N	N	d	712.76	0	9	56	4	24	c	j	880.6	1	1000	100	0	0
230	6	52	N	N	d	570.53	0	2	24	7	56	c	n	556.82	1	1000	100	0	0
230	6	53	P	P	f	474.7	1	7	24	3	56	i	n	593.66	1	100	1000	1	0
230	6	54	N	N	d	904.98	0	8	56	4	24	c	j	466.25	1	1000	1000	1	0
230	6	55	N	N	d	3217.94	0	3	24	7	56	c	n	579.09	1	100	100	0	0
230	6	56	P	P	f	715.41	1	8	24	2	56	i	n	431.61	1	1000	1000	1	0
230	6	57	P	P	f	506.55	1	4	24	9	56	c	n	547.76	1	100	100	0	0
230	6	58	P	P	f	493.34	1	7	56	3	24	c	j	382.09	1	100	1000	0	0
230	6	59	P	P	f	718.44	1	7	56	2	24	c	j	665.89	1	1000	1000	0	0
230	6	60	P	P	f	595.71	1	8	24	4	56	i	n	1047.74	1	1000	1000	0	0
230	6	61	N	N	d	267.07	0	9	24	3	56	i	j	366.88	1	1000	1000	1	0
230	6	62	N	N	d	383.2	0	4	56	8	24	i	n	647.79	1	1000	100	0	0
230	6	63	P	P	d	493.54	1	2	24	7	56	c	n	1113.95	1	100	100	1	0
230	6	64	P	P	f	605.74	1	8	24	3	56	i	j	826.94	0	100	1000	0	0
230	6	65	N	N	d	781.94	0	4	24	7	56	c	n	780.3	1	100	1000	1	1
