subj	block	trial	task_cue	task	choice_resp	choiceRT	choice_acc	topnum	topsize	botnum	botsize	cong	task_resp	taskRT	task_acc	RSI	CSI	altRep	E1
231	1	1	?	N	f	737.36	NA	3	24	8	56	c	n	904.61	1	1000	100	-1	0
231	1	2	?	N	f	1158.17	NA	4	24	7	56	c	n	615.48	1	1000	1000	0	0
231	1	3	?	N	f	1709.52	NA	8	56	3	24	c	j	1179.51	1	100	100	0	0
231	1	4	?	P	d	-95.72	NA	9	56	2	24	c	j	1920.27	1	1000	1000	0	0
231	1	5	?	P	d	750.79	NA	3	24	9	56	c	n	873.54	1	100	1000	0	0
231	1	6	?	N	f	586.58	NA	4	24	8	56	c	n	1759.9	1	100	100	0	0
231	1	7	?	P	d	1.39	NA	9	56	2	24	c	j	1287.37	1	1000	100	0	0
231	1	8	?	N	f	807.52	NA	3	24	9	56	c	n	333.66	1	1000	1000	0	0
231	1	9	?	N	f	473.03	NA	8	56	4	24	c	j	896.75	1	1000	100	0	0
231	1	10	?	P	d	2202.01	NA	8	24	3	56	i	n	1267.62	1	100	100	0	0
231	1	11	?	N	f	236.4	NA	7	56	2	24	c	j	1220.15	1	1000	100	0	0
231	1	12	?	P	d	267.49	NA	4	24	9	56	c	n	1289.01	1	1000	1000	0	0
231	1	13	?	N	f	-238.34	NA	8	24	3	56	i	j	1788.64	1	1000	1000	0	0
231	1	14	?	N	f	-306.42	NA	9	56	4	24	c	j	1170.35	1	1000	100	0	0
231	1	15	?	N	f	2889.72	NA	3	56	8	24	i	n	690.6	1	100	1000	0	0
231	1	16	?	P	d	-505.95	NA	7	56	2	24	c	j	1082.76	1	1000	1000	0	0
231	1	17	?	P	d	43.63	NA	4	56	9	24	i	j	1542.11	1	1000	100	0	0
231	1	18	?	N	f	789.27	NA	3	56	7	24	i	n	1256.52	1	1000	100	0	0
231	1	19	?	P	d	1250.19	NA	9	56	2	24	c	j	3402.78	1	100	1000	0	0
231	1	20	?	N	f	1125.14	NA	3	56	7	24	i	n	1639.83	1	100	1000	0	0
231	1	21	?	P	d	675.91	NA	8	24	4	56	i	n	2778.09	1	100	100	0	0
231	1	22	?	N	f	-391.36	NA	3	24	9	56	c	n	2210.68	1	1000	100	0	0
231	1	23	?	N	f	-481.94	NA	7	56	2	24	c	j	802.45	1	1000	1000	0	0
231	1	24	?	P	d	1336.93	NA	3	56	9	24	i	j	1297.22	1	100	100	0	0
231	1	25	?	P	d	852.34	NA	2	56	7	24	i	j	598.71	1	100	1000	0	0
231	1	26	?	N	f	-182.66	NA	8	24	4	56	i	j	1507.45	1	1000	1000	0	0
231	1	27	?	N	f	10.39	NA	2	24	8	56	c	n	1116.02	1	1000	100	0	0
231	1	28	?	P	d	1585.97	NA	3	56	8	24	i	j	1194.53	1	100	1000	0	0
231	1	29	?	N	f	1513.19	NA	2	56	8	24	i	n	1082.9	1	100	100	0	0
231	1	30	?	P	d	854.96	NA	3	24	8	56	c	n	883.14	1	100	100	0	0
231	1	31	?	N	f	528.71	NA	7	56	4	24	c	j	1059.58	1	100	1000	0	0
231	1	32	?	P	d	-155.51	NA	7	24	3	56	i	n	735.26	1	1000	1000	0	0
231	1	33	?	P	d	908.9	NA	4	56	7	24	i	j	954.45	1	100	100	0	0
231	1	34	?	P	d	753.38	NA	2	56	7	24	i	j	983.15	1	100	100	0	0
231	1	35	?	N	f	349.71	NA	7	56	4	24	c	j	1006.54	1	100	1000	0	0
231	1	36	?	N	f	-417.25	NA	2	56	8	24	i	n	1025.63	1	1000	100	0	0
231	1	37	?	N	f	589.27	NA	3	56	8	24	i	n	985.0	1	100	1000	0	0
231	1	38	?	P	d	165.49	NA	8	56	2	24	c	j	1108.22	1	100	100	0	0
231	1	39	?	P	d	330.26	NA	4	24	8	56	c	n	734.08	1	100	1000	0	0
231	1	40	?	N	f	158.61	NA	8	56	2	24	c	j	1303.92	1	100	100	0	0
231	1	41	?	P	d	-577.26	NA	3	56	7	24	i	j	3047.42	1	1000	1000	0	0
231	1	42	?	N	f	963.36	NA	4	24	7	56	c	n	1487.49	1	100	1000	0	0
231	1	43	?	P	d	-262.86	NA	3	56	7	24	i	j	1067.52	1	1000	100	0	0
231	1	44	?	P	d	821.86	NA	4	24	7	56	c	n	760.25	1	1000	100	0	0
231	1	45	?	N	f	399.42	NA	2	24	8	56	c	n	2379.73	1	100	100	0	0
231	1	46	?	N	f	-468.22	NA	9	24	4	56	i	j	648.77	1	1000	100	0	0
231	1	47	?	N	f	-70.37	NA	3	56	9	24	i	n	1810.07	1	1000	1000	0	0
231	1	48	?	P	d	307.95	NA	2	56	8	24	i	j	1405.21	1	100	100	0	0
231	1	49	?	P	d	-542.95	NA	7	24	3	56	i	n	1360.22	1	1000	1000	0	0
231	1	50	?	N	f	567.25	NA	4	24	8	56	c	n	1323.55	1	100	1000	0	0
231	1	51	?	P	d	-485.07	NA	2	24	8	56	c	n	1035.6	1	1000	1000	0	0
231	1	52	?	N	f	751.56	NA	7	24	3	56	i	j	1874.34	1	100	1000	0	0
231	1	53	?	P	d	-506.88	NA	8	24	2	56	i	n	2117.42	1	1000	100	0	0
231	1	54	?	N	f	-339.23	NA	3	24	8	56	c	n	1766.58	1	1000	100	0	0
231	1	55	?	P	d	1091.19	NA	7	56	4	24	c	j	3023.31	1	100	100	0	0
231	1	56	?	N	f	-362.47	NA	9	56	3	24	c	j	786.94	1	1000	1000	0	0
231	1	57	?	N	f	607.14	NA	4	56	9	24	i	n	1784.49	1	100	1000	0	0
231	1	58	?	P	d	304.24	NA	3	56	9	24	i	j	2469.62	1	100	1000	0	0
231	1	59	?	P	d	-214.79	NA	4	56	9	24	i	j	890.56	1	1000	100	0	0
231	1	60	?	N	f	395.87	NA	3	24	7	56	c	n	756.73	1	100	100	0	0
231	1	61	?	N	f	-225.14	NA	7	24	2	56	i	j	766.87	1	1000	1000	0	0
231	1	62	?	N	f	67.05	NA	3	56	8	24	i	n	1531.75	1	1000	1000	0	0
231	1	63	?	P	d	234.34	NA	9	56	4	24	c	j	1105.72	1	100	1000	0	0
231	1	64	?	P	d	617.76	NA	9	24	3	56	i	n	711.99	1	100	100	0	0
231	1	65	?	P	d	-287.9	NA	8	24	2	56	i	n	1042.3	1	1000	100	0	0
231	2	1	?	N	f	3060.43	NA	3	56	9	24	i	n	2314.57	1	1000	1000	-1	0
231	2	2	?	P	d	2079.23	NA	4	24	8	56	c	n	2430.49	1	100	100	0	0
231	2	3	?	P	d	737.57	NA	7	56	3	24	c	j	1501.94	1	1000	100	0	0
231	2	4	?	N	f	373.5	NA	4	56	9	24	i	n	1446.68	1	100	1000	0	0
231	2	5	?	P	d	1020.43	NA	7	56	3	24	c	j	1332.33	1	100	100	0	0
231	2	6	?	N	f	1752.92	NA	7	56	2	24	c	j	1533.94	1	1000	100	0	0
231	2	7	?	P	d	-508.62	NA	3	24	9	56	c	n	1283.57	1	1000	100	0	0
231	2	8	?	P	d	-238.63	NA	4	56	7	24	i	n	899.76	0	1000	1000	0	0
231	2	9	?	P	d	416.25	NA	7	56	3	24	c	j	1434.85	1	100	1000	0	1
231	2	10	?	N	f	270.98	NA	7	56	2	24	c	j	1142.1	1	100	100	0	0
231	2	11	?	N	f	-257.0	NA	3	56	7	24	i	n	2850.86	1	1000	100	0	0
231	2	12	?	N	f	-464.18	NA	2	56	7	24	i	n	764.57	1	1000	100	0	0
231	2	13	?	P	d	415.81	NA	7	24	4	56	i	n	1343.53	1	100	1000	0	0
231	2	14	?	P	d	-278.73	NA	7	56	3	24	c	j	883.29	1	1000	100	0	0
231	2	15	?	N	f	-92.07	NA	2	24	9	56	c	n	1552.12	1	1000	1000	0	0
231	2	16	?	N	f	-545.4	NA	9	24	3	56	i	j	1256.52	1	1000	1000	0	0
231	2	17	?	P	d	-642.06	NA	4	24	7	56	c	n	4221.31	1	1000	100	0	0
231	2	18	?	N	f	1385.54	NA	7	24	3	56	i	j	2380.27	1	100	1000	0	0
231	2	19	?	P	d	669.92	NA	8	56	4	24	c	j	3930.09	1	1000	1000	0	0
231	2	20	?	N	f	1254.0	NA	9	56	3	24	c	j	1219.47	1	100	1000	0	0
231	2	21	?	P	d	-297.59	NA	4	56	9	24	i	j	1651.78	1	1000	100	0	0
231	2	22	?	P	d	1239.05	NA	3	56	8	24	i	j	4067.76	1	100	100	0	0
231	2	23	?	N	f	458.95	NA	9	56	4	24	c	j	3002.7	1	100	1000	0	0
231	2	24	?	N	f	844.93	NA	9	24	2	56	i	j	1249.32	1	100	100	0	0
231	2	25	?	P	d	1315.8	NA	8	56	4	24	c	j	1006.69	1	100	100	0	0
231	2	26	?	N	f	327.08	NA	9	56	2	24	c	j	1034.55	1	1000	1000	0	0
231	2	27	?	N	f	3006.05	NA	3	56	7	24	i	n	1489.71	1	100	100	0	0
231	2	28	?	P	d	1182.01	NA	4	24	8	56	c	n	1297.59	1	100	1000	0	0
231	2	29	?	P	d	1066.13	NA	3	24	8	56	c	n	848.16	1	1000	1000	0	0
231	2	30	?	N	f	1157.65	NA	2	56	9	24	i	n	1875.51	1	100	100	0	0
231	2	31	?	N	f	1173.12	NA	4	56	7	24	i	n	1019.49	1	100	100	0	0
231	2	32	?	P	d	-251.62	NA	3	56	7	24	i	j	2258.98	1	1000	1000	0	0
231	2	33	?	P	d	1082.41	NA	4	56	8	24	i	j	1355.45	1	100	100	0	0
231	2	34	?	N	f	-47.14	NA	7	24	3	56	i	j	1564.44	1	1000	100	0	0
231	2	35	?	P	d	1606.27	NA	9	24	4	56	i	n	1390.98	1	100	100	0	0
231	2	36	?	N	f	495.87	NA	3	56	9	24	i	n	1329.21	1	1000	1000	0	0
231	2	37	?	P	d	1481.11	NA	2	24	7	56	c	n	2715.51	1	100	100	0	0
231	2	38	?	N	f	1144.14	NA	8	24	4	56	i	j	3589.91	1	100	100	0	0
231	2	39	?	P	d	2900.77	NA	3	56	9	24	i	j	1793.15	1	1000	100	0	0
231	2	40	?	N	f	870.61	NA	7	24	4	56	i	j	2557.49	1	100	1000	0	0
231	2	41	?	N	f	1248.36	NA	8	56	2	24	c	j	1939.21	1	1000	1000	0	0
231	2	42	?	N	f	1732.12	NA	4	56	7	24	i	n	1477.21	1	100	1000	0	0
231	2	43	?	P	d	870.33	NA	7	24	3	56	i	n	2737.51	1	1000	1000	0	0
231	2	44	?	P	d	1166.81	NA	2	24	7	56	c	n	3144.1	1	1000	1000	0	0
231	2	45	?	N	f	1060.87	NA	3	24	8	56	c	n	1360.92	1	100	1000	0	0
231	2	46	?	N	f	1119.82	NA	8	24	4	56	i	j	1555.38	1	100	1000	0	0
231	2	47	?	P	d	831.05	NA	8	56	2	24	c	j	1454.9	1	1000	1000	0	0
231	2	48	?	P	d	1101.37	NA	3	24	8	56	c	n	1374.13	1	100	1000	0	0
231	2	49	?	N	f	1182.74	NA	4	56	8	24	i	n	2940.47	1	1000	1000	0	0
231	2	50	?	N	f	922.42	NA	9	56	3	24	c	j	1176.48	1	100	1000	0	0
231	2	51	?	N	f	1275.37	NA	9	24	2	56	i	j	818.24	1	100	1000	0	0
231	2	52	?	N	f	333.21	NA	3	24	9	56	c	n	2494.07	1	1000	100	0	0
231	2	53	?	N	f	2208.87	NA	2	24	8	56	c	n	1999.24	1	100	100	0	0
231	2	54	?	P	d	314.65	NA	3	24	9	56	c	n	2219.52	1	100	1000	0	0
231	2	55	?	P	d	97.83	NA	2	56	8	24	i	j	1016.01	1	1000	1000	0	0
231	2	56	?	P	d	-407.51	NA	8	56	4	24	c	j	743.3	1	1000	100	0	0
231	2	57	?	P	d	612.56	NA	7	56	3	24	c	j	733.65	1	100	100	0	0
231	2	58	?	P	d	506.95	NA	8	24	2	56	i	n	997.72	1	1000	100	0	0
231	2	59	?	P	d	583.04	NA	8	24	4	56	i	n	861.03	1	100	1000	0	0
231	2	60	?	N	f	466.35	NA	3	56	9	24	i	n	804.93	1	1000	1000	0	0
231	2	61	?	P	d	-81.27	NA	8	24	2	56	i	n	1665.37	1	1000	100	0	0
231	2	62	?	N	f	-352.7	NA	4	24	8	56	c	n	1045.06	1	1000	100	0	0
231	2	63	?	N	f	682.4	NA	3	24	7	56	c	n	781.56	1	100	100	0	0
231	2	64	?	P	d	537.7	NA	2	56	7	24	i	j	1086.57	1	1000	100	0	0
231	2	65	?	P	d	603.99	NA	4	24	8	56	c	n	522.09	1	1000	1000	0	0
231	3	1	?	N	f	1113.62	NA	8	56	4	24	c	j	981.66	1	100	1000	-1	0
231	3	2	?	P	d	-26.53	NA	3	24	9	56	c	n	685.45	1	1000	100	0	0
231	3	3	?	N	f	807.5	NA	2	56	8	24	i	n	784.34	1	100	100	0	0
231	3	4	?	N	f	935.87	NA	7	56	4	24	c	j	1038.08	1	100	100	0	0
231	3	5	?	N	f	551.0	NA	7	56	3	24	c	j	1104.45	1	100	1000	0	0
231	3	6	?	P	d	-711.77	NA	2	24	7	56	c	n	932.55	1	1000	1000	0	0
231	3	7	?	P	d	-610.01	NA	7	24	4	56	i	n	956.75	1	1000	100	0	0
231	3	8	?	N	f	-360.46	NA	3	56	7	24	i	n	846.5	1	1000	100	0	0
231	3	9	?	P	d	649.49	NA	9	56	4	24	c	n	1941.37	0	100	100	0	0
231	3	10	?	P	d	1272.94	NA	9	24	2	56	i	n	725.83	1	100	1000	0	1
231	3	11	?	P	d	792.71	NA	4	56	8	24	i	j	1134.22	1	100	1000	0	0
231	3	12	?	P	d	631.57	NA	7	56	3	24	c	j	814.17	1	100	100	0	0
231	3	13	?	P	d	-206.4	NA	9	24	4	56	i	n	1708.48	1	1000	1000	0	0
231	3	14	?	N	f	520.53	NA	8	56	2	24	c	j	847.65	1	100	1000	0	0
231	3	15	?	N	f	504.62	NA	8	56	3	24	c	j	590.27	1	100	1000	0	0
231	3	16	?	N	f	508.15	NA	7	24	4	56	i	n	763.08	0	100	100	0	0
231	3	17	?	N	f	1932.99	NA	3	56	9	24	i	n	3481.36	1	100	100	0	1
231	3	18	?	P	d	-74.31	NA	2	56	7	24	i	j	1109.01	1	1000	1000	0	0
231	3	19	?	P	d	1094.96	NA	4	24	9	56	c	n	900.85	1	100	100	0	0
231	3	20	?	P	d	867.62	NA	9	24	2	56	i	n	924.06	1	100	1000	0	0
231	3	21	?	N	f	474.74	NA	4	24	7	56	c	n	1708.86	1	100	100	0	0
231	3	22	?	N	f	-359.5	NA	8	56	2	24	c	j	689.6	1	1000	100	0	0
231	3	23	?	N	f	-563.12	NA	7	56	4	24	c	j	777.36	1	1000	1000	0	0
231	3	24	?	N	f	725.73	NA	9	24	2	56	i	j	909.06	1	1000	1000	0	0
231	3	25	?	N	f	601.06	NA	7	24	3	56	i	n	984.6	0	100	1000	0	0
231	3	26	?	N	f	1099.86	NA	2	56	8	24	i	n	893.44	1	100	1000	0	1
231	3	27	?	P	d	994.14	NA	9	56	4	24	c	j	2936.17	1	1000	1000	0	0
231	3	28	?	P	d	-462.63	NA	3	24	8	56	c	n	777.68	1	1000	100	0	0
231	3	29	?	P	d	208.22	NA	9	24	2	56	i	n	1291.26	1	1000	1000	0	0
231	3	30	?	P	d	338.92	NA	4	24	8	56	c	n	671.5	1	1000	100	0	0
231	3	31	?	P	d	2790.52	NA	7	24	3	56	i	n	691.83	1	100	100	0	0
231	3	32	?	N	f	-369.63	NA	9	24	4	56	i	j	1388.26	1	1000	100	0	0
231	3	33	?	N	f	663.65	NA	2	24	8	56	c	n	699.96	1	100	1000	0	0
231	3	34	?	N	f	619.3	NA	9	24	4	56	i	j	1240.54	1	100	1000	0	0
231	3	35	?	N	f	1486.96	NA	8	24	2	56	i	j	1320.53	1	100	100	0	0
231	3	36	?	N	f	1145.14	NA	9	24	4	56	i	j	833.92	1	1000	100	0	0
231	3	37	?	P	d	506.92	NA	9	24	2	56	i	n	1525.84	1	1000	1000	0	0
231	3	38	?	P	d	701.48	NA	4	56	8	24	i	j	726.55	1	100	1000	0	0
231	3	39	?	P	d	2547.83	NA	9	56	2	24	c	j	869.74	1	100	100	0	0
231	3	40	?	N	f	537.68	NA	3	24	9	56	c	n	973.17	1	100	100	0	0
231	3	41	?	N	f	-1.25	NA	4	56	7	24	i	n	1475.61	1	1000	100	0	0
231	3	42	?	P	d	58.69	NA	9	56	3	24	c	j	1799.91	1	1000	100	0	0
231	3	43	?	P	d	809.86	NA	2	56	8	24	i	j	741.48	1	100	100	0	0
231	3	44	?	N	f	-460.06	NA	8	24	4	56	i	j	1589.53	1	1000	1000	0	0
231	3	45	?	N	f	-541.81	NA	2	56	8	24	i	n	1204.37	1	1000	1000	0	0
231	3	46	?	N	f	1359.91	NA	9	24	3	56	i	j	742.21	1	100	100	0	0
231	3	47	?	P	d	-482.3	NA	4	24	7	56	c	n	2085.44	1	1000	1000	0	0
231	3	48	?	P	d	-361.07	NA	7	56	3	24	c	j	1418.89	1	1000	100	0	0
231	3	49	?	P	d	469.37	NA	7	24	2	56	i	n	1274.71	1	100	1000	0	0
231	3	50	?	N	f	-551.2	NA	7	24	3	56	i	j	1117.39	1	1000	100	0	0
231	3	51	?	N	f	461.83	NA	4	24	7	56	c	n	901.72	1	100	100	0	0
231	3	52	?	P	d	8.08	NA	2	56	8	24	i	j	852.33	1	1000	1000	0	0
231	3	53	?	N	f	-499.79	NA	8	56	3	24	c	j	1155.84	1	1000	1000	0	0
231	3	54	?	N	f	709.37	NA	2	24	8	56	c	n	595.12	1	100	1000	0	0
231	3	55	?	P	d	625.62	NA	8	56	3	24	c	j	999.29	1	100	1000	0	0
231	3	56	?	N	f	675.02	NA	4	24	7	56	c	n	1448.93	1	100	1000	0	0
231	3	57	?	P	d	-431.22	NA	7	56	3	24	c	j	605.45	1	1000	1000	0	0
231	3	58	?	N	f	563.97	NA	4	24	7	56	c	n	2297.77	1	100	1000	0	0
231	3	59	?	P	d	-443.99	NA	9	56	2	24	c	j	1257.74	1	1000	100	0	0
231	3	60	?	N	f	136.72	NA	9	24	3	56	i	j	1928.72	1	1000	100	0	0
231	3	61	?	P	d	-153.48	NA	7	24	4	56	i	n	1446.75	1	1000	100	0	0
231	3	62	?	N	f	-286.66	NA	3	24	8	56	c	n	1549.9	1	1000	100	0	0
231	3	63	?	P	d	-216.15	NA	2	24	9	56	c	n	1203.05	1	1000	1000	0	0
231	3	64	?	N	f	402.74	NA	3	24	7	56	c	n	1274.32	1	1000	1000	0	0
231	3	65	?	P	d	868.66	NA	8	24	4	56	i	n	1049.23	1	100	100	0	0
231	4	1	?	N	f	911.71	NA	3	24	8	56	c	n	641.69	1	100	1000	-1	0
231	4	2	?	P	d	-381.04	NA	4	56	9	24	i	j	1399.0	1	1000	100	0	0
231	4	3	?	N	f	-115.54	NA	3	24	9	56	c	n	922.99	1	1000	100	0	0
231	4	4	?	P	d	-406.46	NA	9	24	2	56	i	n	1121.47	1	1000	100	0	0
231	4	5	?	N	f	540.32	NA	9	24	3	56	i	j	964.22	1	100	100	0	0
231	4	6	?	P	d	380.37	NA	8	24	2	56	i	n	1872.1	1	100	100	0	0
231	4	7	?	N	f	-554.55	NA	9	56	3	24	c	j	944.86	1	1000	100	0	0
231	4	8	?	P	d	-299.59	NA	4	24	9	56	c	n	1333.88	1	1000	1000	0	0
231	4	9	?	N	f	675.58	NA	2	24	7	56	c	n	2113.49	1	100	100	0	0
231	4	10	?	P	d	682.76	NA	9	56	3	24	c	j	1963.02	1	100	1000	0	0
231	4	11	?	N	f	614.18	NA	2	24	9	56	c	n	1195.9	1	100	1000	0	0
231	4	12	?	P	d	174.92	NA	9	24	4	56	i	n	3384.82	1	1000	1000	0	0
231	4	13	?	N	f	494.3	NA	7	56	2	24	c	j	822.3	1	100	100	0	0
231	4	14	?	N	f	1260.12	NA	8	56	3	24	c	j	899.23	1	100	1000	0	0
231	4	15	?	N	f	551.06	NA	4	24	9	56	c	n	828.04	1	100	1000	0	0
231	4	16	?	P	d	546.0	NA	2	56	7	24	i	j	4447.42	1	100	100	0	0
231	4	17	?	P	d	-627.09	NA	7	24	3	56	i	n	849.66	1	1000	100	0	0
231	4	18	?	P	d	393.88	NA	2	56	9	24	i	j	631.08	1	100	100	0	0
231	4	19	?	N	f	493.95	NA	3	24	9	56	c	n	1158.03	1	100	1000	0	0
231	4	20	?	P	d	597.91	NA	7	24	4	56	i	n	1725.47	1	1000	1000	0	0
231	4	21	?	N	f	-392.92	NA	9	24	2	56	i	j	2827.65	1	1000	100	0	0
231	4	22	?	P	d	-358.37	NA	3	24	9	56	c	n	678.84	1	1000	1000	0	0
231	4	23	?	P	d	457.77	NA	2	24	8	56	c	n	739.94	1	100	100	0	0
231	4	24	?	P	d	1307.32	NA	8	56	4	24	c	j	794.55	1	100	1000	0	0
231	4	25	?	P	d	1355.35	NA	9	56	3	24	c	j	1164.15	1	1000	100	0	0
231	4	26	?	N	f	999.88	NA	2	56	9	24	i	n	1062.04	1	100	1000	0	0
231	4	27	?	P	d	759.84	NA	7	56	3	24	c	j	527.61	1	1000	1000	0	0
231	4	28	?	P	d	783.32	NA	8	24	2	56	i	n	996.18	1	100	100	0	0
231	4	29	?	N	f	941.64	NA	8	24	3	56	i	j	616.14	1	100	1000	0	0
231	4	30	?	N	f	663.58	NA	7	56	4	24	c	j	1106.83	1	100	100	0	0
231	4	31	?	N	f	349.09	NA	8	24	3	56	i	j	735.99	1	1000	1000	0	0
231	4	32	?	N	f	1707.41	NA	4	24	7	56	c	n	1099.07	1	1000	100	0	0
231	4	33	?	P	d	-453.06	NA	2	56	7	24	i	j	1427.85	1	1000	1000	0	0
231	4	34	?	P	d	-379.1	NA	3	24	8	56	c	n	1028.93	1	1000	1000	0	0
231	4	35	?	P	d	1762.05	NA	2	56	8	24	i	j	551.2	1	100	1000	0	0
231	4	36	?	N	f	446.91	NA	7	56	4	24	c	j	1050.56	1	100	100	0	0
231	4	37	?	N	f	89.61	NA	9	56	2	24	c	j	907.69	1	1000	1000	0	0
231	4	38	?	N	f	350.55	NA	4	24	8	56	c	n	591.65	1	1000	1000	0	0
231	4	39	?	P	d	1015.0	NA	9	24	3	56	i	n	847.21	1	1000	1000	0	0
231	4	40	?	N	f	1427.5	NA	4	56	7	24	i	j	4475.79	0	100	1000	0	0
231	4	41	?	P	d	213.39	NA	9	24	3	56	i	n	1331.58	1	1000	100	0	1
231	4	42	?	N	f	1438.92	NA	2	24	8	56	c	n	1827.67	1	100	1000	0	0
231	4	43	?	N	f	1782.01	NA	8	56	4	24	c	j	735.18	1	100	100	0	0
231	4	44	?	P	d	-556.06	NA	9	24	2	56	i	n	841.48	1	1000	1000	0	0
231	4	45	?	P	d	-460.55	NA	7	56	3	24	c	j	1498.69	1	1000	1000	0	0
231	4	46	?	N	f	493.34	NA	7	24	4	56	i	j	990.84	1	100	100	0	0
231	4	47	?	N	f	-449.9	NA	7	56	2	24	c	j	835.0	1	1000	100	0	0
231	4	48	?	N	f	683.89	NA	4	24	7	56	c	n	794.77	1	100	100	0	0
231	4	49	?	P	d	2144.36	NA	9	24	2	56	i	n	504.88	1	100	1000	0	0
231	4	50	?	N	f	720.44	NA	3	24	9	56	c	n	1208.37	1	100	100	0	0
231	4	51	?	N	f	58.74	NA	4	56	7	24	i	n	1292.32	1	1000	100	0	0
231	4	52	?	P	d	-346.75	NA	3	56	9	24	i	j	690.83	1	1000	100	0	0
231	4	53	?	P	d	-89.35	NA	2	56	8	24	i	j	644.65	1	1000	100	0	0
231	4	54	?	P	d	704.31	NA	4	56	8	24	i	j	871.29	1	100	1000	0	0
231	4	55	?	N	f	-193.98	NA	2	24	9	56	c	n	821.32	1	1000	100	0	0
231	4	56	?	N	f	404.22	NA	8	56	3	24	c	j	578.32	1	1000	1000	0	0
231	4	57	?	N	f	63.52	NA	8	56	4	24	c	j	689.51	1	1000	100	0	0
231	4	58	?	N	f	2060.84	NA	3	56	9	24	i	n	1157.4	1	100	100	0	0
231	4	59	?	P	d	474.96	NA	4	56	9	24	i	j	942.87	1	100	1000	0	0
231	4	60	?	P	d	-133.01	NA	2	56	9	24	i	j	836.7	1	1000	1000	0	0
231	4	61	?	P	d	391.76	NA	4	56	7	24	i	j	1538.15	1	1000	1000	0	0
231	4	62	?	N	f	461.17	NA	7	56	2	24	c	j	967.51	1	100	1000	0	0
231	4	63	?	P	d	1182.47	NA	7	24	3	56	i	n	825.75	1	100	1000	0	0
231	4	64	?	N	f	420.69	NA	4	56	8	24	i	n	1220.43	1	100	100	0	0
231	4	65	?	N	f	-262.4	NA	2	24	7	56	c	n	944.08	1	1000	100	0	0
231	5	1	?	P	d	896.29	NA	3	24	7	56	c	n	811.32	1	100	1000	-1	0
231	5	2	?	N	f	535.1	NA	7	24	4	56	i	j	564.93	1	100	1000	0	0
231	5	3	?	N	f	-419.05	NA	3	56	9	24	i	n	842.65	1	1000	1000	0	0
231	5	4	?	P	d	-256.44	NA	2	56	8	24	i	j	770.09	1	1000	100	0	0
231	5	5	?	P	d	-487.17	NA	8	24	3	56	i	n	1642.48	1	1000	100	0	0
231	5	6	?	P	d	475.66	NA	4	24	8	56	c	n	1192.0	1	100	100	0	0
231	5	7	?	N	f	-122.96	NA	3	56	9	24	i	n	1139.11	1	1000	1000	0	0
231	5	8	?	N	f	67.33	NA	8	56	2	24	c	j	1420.17	1	1000	100	0	0
231	5	9	?	P	d	1516.17	NA	3	24	9	56	c	n	600.59	1	1000	100	0	0
231	5	10	?	N	f	-478.15	NA	8	24	2	56	i	j	2078.44	1	1000	100	0	0
231	5	11	?	P	d	-469.09	NA	9	24	3	56	i	n	940.47	1	1000	100	0	0
231	5	12	?	N	f	10.65	NA	4	24	9	56	c	j	1060.34	0	1000	100	0	0
231	5	13	?	P	d	1489.87	NA	9	56	3	24	c	j	2436.04	1	100	1000	0	1
231	5	14	?	N	f	-416.71	NA	8	24	4	56	i	j	1306.49	1	1000	1000	0	0
231	5	15	?	N	f	-394.74	NA	8	24	3	56	i	j	767.41	1	1000	100	0	0
231	5	16	?	P	d	1001.84	NA	8	56	2	24	c	j	2297.92	1	100	100	0	0
231	5	17	?	P	d	-488.92	NA	4	56	9	24	i	n	1054.22	0	1000	1000	0	0
231	5	18	?	P	d	223.9	NA	7	24	2	56	i	n	1031.16	1	1000	1000	0	1
231	5	19	?	N	f	1190.92	NA	7	56	3	24	c	j	3530.07	1	100	100	0	0
231	5	20	?	N	f	274.16	NA	4	24	8	56	c	n	593.34	1	1000	1000	0	0
231	5	21	?	P	d	1029.14	NA	2	56	7	24	i	j	2128.32	1	100	100	0	0
231	5	22	?	N	f	545.09	NA	3	24	9	56	c	n	1350.6	1	1000	1000	0	0
231	5	23	?	N	f	1789.63	NA	4	24	8	56	c	n	3853.58	1	100	1000	0	0
231	5	24	?	P	d	652.92	NA	3	56	9	24	i	j	4762.88	1	100	100	0	0
231	5	25	?	P	d	-436.98	NA	4	24	9	56	c	n	2096.34	1	1000	1000	0	0
231	5	26	?	P	d	433.45	NA	8	56	3	24	c	j	860.84	1	1000	1000	0	0
231	5	27	?	N	f	1491.81	NA	4	56	7	24	i	n	3405.33	1	100	1000	0	0
231	5	28	?	N	f	503.55	NA	3	56	7	24	i	n	521.48	1	100	1000	0	0
231	5	29	?	P	d	664.68	NA	4	24	7	56	c	n	1196.05	1	100	1000	0	0
231	5	30	?	P	d	-444.8	NA	7	56	3	24	c	j	704.99	1	1000	1000	0	0
231	5	31	?	N	f	382.2	NA	2	56	8	24	i	n	1873.78	1	100	100	0	0
231	5	32	?	N	f	-282.38	NA	8	24	3	56	i	j	934.91	1	1000	100	0	0
231	5	33	?	P	d	1055.21	NA	4	56	8	24	i	j	2344.44	1	100	1000	0	0
231	5	34	?	P	d	-256.2	NA	3	56	7	24	i	j	1073.54	1	1000	1000	0	0
231	5	35	?	P	d	597.89	NA	4	24	8	56	c	n	600.99	1	100	100	0	0
231	5	36	?	N	f	531.06	NA	3	56	9	24	i	n	825.69	1	100	100	0	0
231	5	37	?	N	f	397.91	NA	4	56	9	24	i	n	849.13	1	100	100	0	0
231	5	38	?	N	f	-340.73	NA	3	56	7	24	i	n	641.06	1	1000	100	0	0
231	5	39	?	N	f	-314.31	NA	9	56	4	24	c	j	1093.95	1	1000	1000	0	0
231	5	40	?	N	f	-75.52	NA	7	24	2	56	i	j	1186.19	1	1000	1000	0	0
231	5	41	?	N	f	1832.34	NA	3	24	8	56	c	n	847.95	1	100	100	0	0
231	5	42	?	P	d	313.32	NA	7	24	2	56	i	n	768.83	1	100	100	0	0
231	5	43	?	P	d	414.11	NA	9	24	4	56	i	n	486.83	1	100	1000	0	0
231	5	44	?	P	d	1022.69	NA	3	56	9	24	i	j	590.46	1	100	1000	0	0
231	5	45	?	P	d	-178.9	NA	8	56	4	24	c	j	723.38	1	1000	100	0	0
231	5	46	?	P	d	486.2	NA	2	24	7	56	c	n	623.09	1	100	100	0	0
231	5	47	?	N	f	451.98	NA	7	56	3	24	c	j	553.42	1	100	1000	0	0
231	5	48	?	N	f	-363.31	NA	4	24	9	56	c	n	594.74	1	1000	1000	0	0
231	5	49	?	N	f	400.73	NA	9	56	3	24	c	j	647.66	1	100	1000	0	0
231	5	50	?	N	f	-262.05	NA	4	24	8	56	c	n	663.19	1	1000	100	0	0
231	5	51	?	N	f	683.81	NA	7	56	2	24	c	j	579.52	1	100	1000	0	0
231	5	52	?	N	f	-376.17	NA	8	56	3	24	c	j	1314.52	1	1000	100	0	0
231	5	53	?	P	d	774.37	NA	9	56	4	24	c	j	694.53	1	100	100	0	0
231	5	54	?	P	d	-186.83	NA	7	24	3	56	i	n	703.75	1	1000	1000	0	0
231	5	55	?	N	f	258.07	NA	7	24	4	56	i	j	752.3	1	100	100	0	0
231	5	56	?	N	f	425.05	NA	3	24	9	56	c	n	875.11	1	100	1000	0	0
231	5	57	?	P	d	791.3	NA	8	56	4	24	c	j	1336.04	1	100	100	0	0
231	5	58	?	N	f	898.39	NA	3	56	8	24	i	n	1116.76	1	100	1000	0	0
231	5	59	?	P	d	-451.49	NA	2	24	8	56	c	n	1339.78	1	1000	100	0	0
231	5	60	?	N	f	-270.65	NA	9	56	3	24	c	j	945.81	1	1000	1000	0	0
231	5	61	?	N	f	582.34	NA	8	24	4	56	i	j	1196.9	1	100	1000	0	0
231	5	62	?	P	d	-522.95	NA	8	24	2	56	i	n	2180.63	1	1000	100	0	0
231	5	63	?	P	d	401.44	NA	4	56	8	24	i	j	1217.43	1	100	100	0	0
231	5	64	?	N	f	541.55	NA	2	24	8	56	c	n	964.36	1	100	1000	0	0
231	5	65	?	N	f	-364.1	NA	8	56	3	24	c	j	651.58	1	1000	100	0	0
231	6	1	?	N	f	542.2	NA	8	24	3	56	i	j	993.74	1	1000	100	-1	0
231	6	2	?	N	f	-445.96	NA	2	56	7	24	i	n	771.78	1	1000	100	0	0
231	6	3	?	P	d	337.95	NA	8	56	4	24	c	j	1569.74	1	100	100	0	0
231	6	4	?	P	d	301.54	NA	2	24	7	56	c	n	1825.03	1	100	1000	0	0
231	6	5	?	N	f	-506.43	NA	7	56	3	24	c	j	812.18	1	1000	1000	0	0
231	6	6	?	N	f	411.8	NA	2	24	7	56	c	n	789.2	1	100	1000	0	0
231	6	7	?	P	d	191.79	NA	7	56	3	24	c	j	582.17	1	1000	1000	0	0
231	6	8	?	N	f	1586.91	NA	7	24	4	56	i	j	666.22	1	100	1000	0	0
231	6	9	?	P	d	461.18	NA	8	56	2	24	c	j	1205.68	1	100	100	0	0
231	6	10	?	P	d	270.68	NA	8	56	3	24	c	j	1118.03	1	100	1000	0	0
231	6	11	?	P	d	-416.66	NA	7	24	4	56	i	n	1306.51	1	1000	1000	0	0
231	6	12	?	N	f	-518.44	NA	9	24	3	56	i	j	1001.89	1	1000	1000	0	0
231	6	13	?	N	f	-522.71	NA	9	24	4	56	i	j	570.97	1	1000	1000	0	0
231	6	14	?	N	f	550.7	NA	3	56	9	24	i	n	727.46	1	100	100	0	0
231	6	15	?	P	d	-209.94	NA	9	24	2	56	i	n	839.71	1	1000	100	0	0
231	6	16	?	P	d	676.0	NA	9	24	3	56	i	n	774.74	1	100	1000	0	0
231	6	17	?	N	f	-583.99	NA	2	24	9	56	c	n	1466.52	1	1000	100	0	0
231	6	18	?	N	f	-384.76	NA	3	56	8	24	i	n	820.96	1	1000	1000	0	0
231	6	19	?	N	f	459.86	NA	9	24	4	56	i	j	2081.51	1	1000	100	0	0
231	6	20	?	P	d	525.88	NA	3	56	9	24	i	j	775.47	1	100	100	0	0
231	6	21	?	P	d	353.05	NA	4	56	9	24	i	j	509.86	1	100	1000	0	0
231	6	22	?	N	f	-412.92	NA	3	56	8	24	i	n	995.18	1	1000	1000	0	0
231	6	23	?	N	f	-467.98	NA	7	56	2	24	c	j	671.21	1	1000	100	0	0
231	6	24	?	P	d	270.23	NA	7	56	3	24	c	j	2884.2	1	100	1000	0	0
231	6	25	?	P	d	348.11	NA	8	56	4	24	c	j	1748.81	1	100	100	0	0
231	6	26	?	P	d	403.53	NA	7	24	2	56	i	n	634.75	1	100	100	0	0
231	6	27	?	N	f	-331.46	NA	8	24	4	56	i	j	1674.62	1	1000	100	0	0
231	6	28	?	N	f	-11.83	NA	2	56	8	24	i	n	3444.43	1	1000	1000	0	0
231	6	29	?	P	d	-415.43	NA	4	24	9	56	c	n	3817.57	1	1000	100	0	0
231	6	30	?	P	d	-341.44	NA	7	56	2	24	c	j	571.53	1	1000	1000	0	0
231	6	31	?	P	d	-327.96	NA	4	24	9	56	c	n	933.74	1	1000	1000	0	0
231	6	32	?	N	f	-327.27	NA	9	24	2	56	i	j	856.56	1	1000	100	0	0
231	6	33	?	N	f	-596.58	NA	3	24	9	56	c	n	621.22	1	1000	100	0	0
231	6	34	?	N	f	348.42	NA	8	24	2	56	i	j	625.15	1	100	100	0	0
231	6	35	?	N	f	-268.64	NA	7	24	4	56	i	j	847.12	1	1000	1000	0	0
231	6	36	?	N	f	-27.23	NA	2	24	7	56	c	n	548.06	1	1000	1000	0	0
231	6	37	?	P	d	370.33	NA	4	24	7	56	c	n	713.51	1	100	1000	0	0
231	6	38	?	P	d	334.73	NA	9	56	3	24	c	j	722.58	1	100	1000	0	0
231	6	39	?	P	d	1115.33	NA	4	56	9	24	i	j	419.49	1	100	1000	0	0
231	6	40	?	P	d	401.56	NA	7	56	3	24	c	j	545.54	1	100	100	0	0
231	6	41	?	P	d	-366.06	NA	9	56	4	24	c	j	1358.46	1	1000	100	0	0
231	6	42	?	P	d	576.49	NA	3	24	8	56	c	n	550.78	1	100	100	0	0
231	6	43	?	P	d	-349.04	NA	8	56	4	24	c	j	621.25	1	1000	100	0	0
231	6	44	?	N	f	-81.05	NA	9	56	3	24	c	j	776.62	1	1000	100	0	0
231	6	45	?	N	f	-390.47	NA	2	24	9	56	c	n	546.22	1	1000	100	0	0
231	6	46	?	N	f	-410.36	NA	3	24	9	56	c	n	570.95	1	1000	1000	0	0
231	6	47	?	N	f	-2.3	NA	2	56	7	24	i	j	911.02	0	1000	100	0	0
231	6	48	?	N	f	365.27	NA	7	56	4	24	c	j	983.45	1	1000	1000	0	1
231	6	49	?	N	f	382.08	NA	3	24	9	56	c	n	545.35	1	1000	1000	0	0
231	6	50	?	P	d	468.27	NA	2	56	7	24	i	j	487.4	1	100	100	0	0
231	6	51	?	P	d	-430.57	NA	3	56	9	24	i	j	663.26	1	1000	100	0	0
231	6	52	?	P	d	987.89	NA	4	56	9	24	i	j	859.55	1	100	1000	0	0
231	6	53	?	P	d	454.48	NA	2	24	9	56	c	n	613.35	1	100	100	0	0
231	6	54	?	P	d	650.88	NA	7	24	4	56	i	n	1537.47	1	100	100	0	0
231	6	55	?	P	d	627.67	NA	2	56	8	24	i	j	820.56	1	1000	1000	0	0
231	6	56	?	N	f	730.63	NA	7	24	3	56	i	j	870.05	1	100	100	0	0
231	6	57	?	P	d	606.18	NA	7	24	4	56	i	n	1322.95	1	100	1000	0	0
231	6	58	?	N	f	226.53	NA	2	24	7	56	c	n	708.2	1	100	100	0	0
231	6	59	?	P	d	-324.65	NA	9	24	4	56	i	n	645.36	1	1000	100	0	0
231	6	60	?	N	f	356.59	NA	3	24	8	56	c	n	1020.45	1	100	100	0	0
231	6	61	?	P	d	617.65	NA	8	24	2	56	i	n	878.86	1	100	1000	0	0
231	6	62	?	N	f	288.99	NA	4	24	9	56	c	n	737.82	1	100	1000	0	0
231	6	63	?	P	d	618.2	NA	8	56	3	24	c	j	1329.79	1	100	1000	0	0
231	6	64	?	N	f	198.88	NA	4	56	8	24	i	n	1153.59	1	100	100	0	0
231	6	65	?	P	d	639.55	NA	9	24	3	56	i	n	1266.41	1	100	1000	0	0
